"success","timeout","failed_images","failed_audio","failed_video","trial_type","trial_index","time_elapsed","internal_node_id","rt","stimulus","response","imageTrial","sequence","nbackTrial","firstTrial","parity","magnitude","gridTrial"
"true","false","[]","[]","[]","preload","0","16","0.0-0.0","","","","","","","","","",""
"","","","","","html-keyboard-response","1","175501","0.0-1.0","175488","Welcome to the experiment. Press any key to begin."," ","","","","","","",""
"","","","","","html-keyboard-response","2","177503","0.0-2.0","null","<div style=""font-size:60px;"">+</div>","null","","","","","","",""
"","","","","","image-keyboard-response","3","183510","0.0-3.0","null","img/rural_eve_young_black_woman_1.png","null","true","0","","","","",""
"","","","","","html-keyboard-response","4","185517","0.0-4.0","null","<div style=""font-size:60px;"">+</div>","null","","","","","","",""
"","","","","","html-mouse-response","5","186472","0.0-5.0","","<div style=""font-size:60px;"">24</div>","{""key"":null}","","0","true","true","even","3",""
"","","","","","html-keyboard-response","6","186524","0.0-6.0","null","<div style=""font-size:60px;""></div>","null","","","","","","",""
"","","","","","html-mouse-response","7","187478","0.0-7.0","","<div style=""font-size:60px;"">26</div>","{""key"":null}","","0","true","false","even","3",""
"","","","","","html-keyboard-response","8","187534","0.0-8.0","null","<div style=""font-size:60px;""></div>","null","","","","","","",""
"","","","","","html-mouse-response","9","188491","0.0-9.0","","<div style=""font-size:60px;"">28</div>","{""key"":null}","","0","true","false","even","3",""
"","","","","","html-keyboard-response","10","188543","0.0-10.0","null","<div style=""font-size:60px;""></div>","null","","","","","","",""
"","","","","","html-mouse-response","11","189499","0.0-11.0","","<div style=""font-size:60px;"">26</div>","{""key"":null}","","0","true","false","even","3",""
"","","","","","html-keyboard-response","12","189553","0.0-12.0","null","<div style=""font-size:60px;""></div>","null","","","","","","",""
"","","","","","html-mouse-response","13","190510","0.0-13.0","","<div style=""font-size:60px;"">24</div>","{""key"":null}","","0","true","false","even","3",""
"","","","","","html-keyboard-response","14","190565","0.0-14.0","null","<div style=""font-size:60px;""></div>","null","","","","","","",""
"","","","","","html-mouse-response","15","191522","0.0-15.0","","<div style=""font-size:60px;"">28</div>","{""key"":null}","","0","true","false","even","3",""
"","","","","","html-keyboard-response","16","191579","0.0-16.0","null","<div style=""font-size:60px;""></div>","null","","","","","","",""
"","","","","","html-keyboard-response","17","193586","0.0-17.0","null","<div style=""font-size:60px;"">+</div>","null","","","","","","",""
"","","","","","image-keyboard-response","18","199594","0.0-18.0","null","img/rural_eve_old_white_woman_1.png","null","true","1","","","","",""
"","","","","","html-keyboard-response","19","201596","0.0-19.0","null","<div style=""font-size:60px;"">+</div>","null","","","","","","",""
"","","","","","html-mouse-response","20","202553","0.0-20.0","","<div style=""font-size:60px;"">32</div>","{""key"":null}","","1","true","true","even","4",""
"","","","","","html-keyboard-response","21","202608","0.0-21.0","null","<div style=""font-size:60px;""></div>","null","","","","","","",""
"","","","","","html-mouse-response","22","203562","0.0-22.0","","<div style=""font-size:60px;"">30</div>","{""key"":null}","","1","true","false","even","4",""
"","","","","","html-keyboard-response","23","203617","0.0-23.0","null","<div style=""font-size:60px;""></div>","null","","","","","","",""
"","","","","","html-mouse-response","24","204570","0.0-24.0","","<div style=""font-size:60px;"">32</div>","{""key"":null}","","1","true","false","even","4",""
"","","","","","html-keyboard-response","25","204623","0.0-25.0","null","<div style=""font-size:60px;""></div>","null","","","","","","",""
"","","","","","html-mouse-response","26","205578","0.0-26.0","","<div style=""font-size:60px;"">34</div>","{""key"":null}","","1","true","false","even","4",""
"","","","","","html-keyboard-response","27","205631","0.0-27.0","null","<div style=""font-size:60px;""></div>","null","","","","","","",""
"","","","","","html-mouse-response","28","206586","0.0-28.0","","<div style=""font-size:60px;"">30</div>","{""key"":null}","","1","true","false","even","4",""
"","","","","","html-keyboard-response","29","206640","0.0-29.0","null","<div style=""font-size:60px;""></div>","null","","","","","","",""
"","","","","","html-mouse-response","30","207594","0.0-30.0","","<div style=""font-size:60px;"">32</div>","{""key"":null}","","1","true","false","even","4",""
"","","","","","html-keyboard-response","31","207648","0.0-31.0","null","<div style=""font-size:60px;""></div>","null","","","","","","",""
"","","","","","html-keyboard-response","32","209650","0.0-32.0","null","<div style=""font-size:60px;"">+</div>","null","","","","","","",""
"","","","","","image-keyboard-response","33","215658","0.0-33.0","null","img/rural_eve_old_big_vehicle_1.png","null","true","2","","","","",""
"","","","","","html-keyboard-response","34","217665","0.0-34.0","null","<div style=""font-size:60px;"">+</div>","null","","","","","","",""
"","","","","","html-mouse-response","35","218622","0.0-35.0","","<div style=""font-size:60px;"">73</div>","{""key"":null}","","2","true","true","odd","11",""
"","","","","","html-keyboard-response","36","218674","0.0-36.0","null","<div style=""font-size:60px;""></div>","null","","","","","","",""
"","","","","","html-mouse-response","37","219630","0.0-37.0","","<div style=""font-size:60px;"">77</div>","{""key"":null}","","2","true","false","odd","11",""
"","","","","","html-keyboard-response","38","219683","0.0-38.0","null","<div style=""font-size:60px;""></div>","null","","","","","","",""
"","","","","","html-mouse-response","39","220640","0.0-39.0","","<div style=""font-size:60px;"">75</div>","{""key"":null}","","2","true","false","odd","11",""
"","","","","","html-keyboard-response","40","220695","0.0-40.0","null","<div style=""font-size:60px;""></div>","null","","","","","","",""
"","","","","","html-mouse-response","41","221653","0.0-41.0","","<div style=""font-size:60px;"">73</div>","{""key"":null}","","2","true","false","odd","11",""
"","","","","","html-keyboard-response","42","221710","0.0-42.0","null","<div style=""font-size:60px;""></div>","null","","","","","","",""
"","","","","","html-mouse-response","43","222667","0.0-43.0","","<div style=""font-size:60px;"">77</div>","{""key"":null}","","2","true","false","odd","11",""
"","","","","","html-keyboard-response","44","222722","0.0-44.0","null","<div style=""font-size:60px;""></div>","null","","","","","","",""
"","","","","","html-mouse-response","45","223679","0.0-45.0","","<div style=""font-size:60px;"">75</div>","{""key"":null}","","2","true","false","odd","11",""
"","","","","","html-keyboard-response","46","223736","0.0-46.0","null","<div style=""font-size:60px;""></div>","null","","","","","","",""
"","","","","","html-keyboard-response","47","225743","0.0-47.0","null","<div style=""font-size:60px;"">+</div>","null","","","","","","",""
"","","","","","image-keyboard-response","48","231748","0.0-48.0","null","img/rural_eve_young_black_man_1.png","null","true","3","","","","",""
"","","","","","html-keyboard-response","49","233754","0.0-49.0","null","<div style=""font-size:60px;"">+</div>","null","","","","","","",""
"","","","","","html-mouse-response","50","234708","0.0-50.0","","<div style=""font-size:60px;"">50</div>","{""key"":null}","","3","true","true","even","7",""
"","","","","","html-keyboard-response","51","234765","0.0-51.0","null","<div style=""font-size:60px;""></div>","null","","","","","","",""
"","","","","","html-mouse-response","52","235721","0.0-52.0","","<div style=""font-size:60px;"">52</div>","{""key"":null}","","3","true","false","even","7",""
"","","","","","html-keyboard-response","53","235773","0.0-53.0","null","<div style=""font-size:60px;""></div>","null","","","","","","",""
"","","","","","html-mouse-response","54","236729","0.0-54.0","","<div style=""font-size:60px;"">50</div>","{""key"":null}","","3","true","false","even","7",""
"","","","","","html-keyboard-response","55","236782","0.0-55.0","null","<div style=""font-size:60px;""></div>","null","","","","","","",""
"","","","","","html-mouse-response","56","237737","0.0-56.0","","<div style=""font-size:60px;"">52</div>","{""key"":null}","","3","true","false","even","7",""
"","","","","","html-keyboard-response","57","237791","0.0-57.0","null","<div style=""font-size:60px;""></div>","null","","","","","","",""
"","","","","","html-mouse-response","58","238748","0.0-58.0","","<div style=""font-size:60px;"">50</div>","{""key"":null}","","3","true","false","even","7",""
"","","","","","html-keyboard-response","59","238803","0.0-59.0","null","<div style=""font-size:60px;""></div>","null","","","","","","",""
"","","","","","html-mouse-response","60","239759","0.0-60.0","","<div style=""font-size:60px;"">48</div>","{""key"":null}","","3","true","false","even","7",""
"","","","","","html-keyboard-response","61","239812","0.0-61.0","null","<div style=""font-size:60px;""></div>","null","","","","","","",""
"","","","","","html-keyboard-response","62","241815","0.0-62.0","null","<div style=""font-size:60px;"">+</div>","null","","","","","","",""
"","","","","","image-keyboard-response","63","247819","0.0-63.0","null","img/rural_eve_new_big_church_1.png","null","true","4","","","","",""
"","","","","","html-keyboard-response","64","249826","0.0-64.0","null","<div style=""font-size:60px;"">+</div>","null","","","","","","",""
"","","","","","html-mouse-response","65","250782","0.0-65.0","","<div style=""font-size:60px;"">20</div>","{""key"":null}","","4","true","true","even","2",""
"","","","","","html-keyboard-response","66","250835","0.0-66.0","null","<div style=""font-size:60px;""></div>","null","","","","","","",""
"","","","","","html-mouse-response","67","251792","0.0-67.0","","<div style=""font-size:60px;"">18</div>","{""key"":null}","","4","true","false","even","2",""
"","","","","","html-keyboard-response","68","251847","0.0-68.0","null","<div style=""font-size:60px;""></div>","null","","","","","","",""
"","","","","","html-mouse-response","69","252804","0.0-69.0","","<div style=""font-size:60px;"">20</div>","{""key"":null}","","4","true","false","even","2",""
"","","","","","html-keyboard-response","70","252860","0.0-70.0","null","<div style=""font-size:60px;""></div>","null","","","","","","",""
"","","","","","html-mouse-response","71","253817","0.0-71.0","","<div style=""font-size:60px;"">22</div>","{""key"":null}","","4","true","false","even","2",""
"","","","","","html-keyboard-response","72","253874","0.0-72.0","null","<div style=""font-size:60px;""></div>","null","","","","","","",""
"","","","","","html-mouse-response","73","254830","0.0-73.0","","<div style=""font-size:60px;"">20</div>","{""key"":null}","","4","true","false","even","2",""
"","","","","","html-keyboard-response","74","254887","0.0-74.0","null","<div style=""font-size:60px;""></div>","null","","","","","","",""
"","","","","","html-mouse-response","75","255844","0.0-75.0","","<div style=""font-size:60px;"">18</div>","{""key"":null}","","4","true","false","even","2",""
"","","","","","html-keyboard-response","76","255897","0.0-76.0","null","<div style=""font-size:60px;""></div>","null","","","","","","",""
"","","","","","html-keyboard-response","77","257902","0.0-77.0","null","<div style=""font-size:60px;"">+</div>","null","","","","","","",""
"","","","","","image-keyboard-response","78","263906","0.0-78.0","null","img/rural_eve_young_white_woman_1.png","null","true","5","","","","",""
"","","","","","html-keyboard-response","79","265913","0.0-79.0","null","<div style=""font-size:60px;"">+</div>","null","","","","","","",""
"","","","","","html-mouse-response","80","266869","0.0-80.0","","<div style=""font-size:60px;"">53</div>","{""key"":null}","","5","true","true","odd","7",""
"","","","","","html-keyboard-response","81","266921","0.0-81.0","null","<div style=""font-size:60px;""></div>","null","","","","","","",""
"","","","","","html-mouse-response","82","267878","0.0-82.0","","<div style=""font-size:60px;"">49</div>","{""key"":null}","","5","true","false","odd","7",""
"","","","","","html-keyboard-response","83","267932","0.0-83.0","null","<div style=""font-size:60px;""></div>","null","","","","","","",""
"","","","","","html-mouse-response","84","268888","0.0-84.0","","<div style=""font-size:60px;"">51</div>","{""key"":null}","","5","true","false","odd","7",""
"","","","","","html-keyboard-response","85","268941","0.0-85.0","null","<div style=""font-size:60px;""></div>","null","","","","","","",""
"","","","","","html-mouse-response","86","269896","0.0-86.0","","<div style=""font-size:60px;"">53</div>","{""key"":null}","","5","true","false","odd","7",""
"","","","","","html-keyboard-response","87","269951","0.0-87.0","null","<div style=""font-size:60px;""></div>","null","","","","","","",""
"","","","","","html-mouse-response","88","270907","0.0-88.0","","<div style=""font-size:60px;"">51</div>","{""key"":null}","","5","true","false","odd","7",""
"","","","","","html-keyboard-response","89","270963","0.0-89.0","null","<div style=""font-size:60px;""></div>","null","","","","","","",""
"","","","","","html-mouse-response","90","271918","0.0-90.0","","<div style=""font-size:60px;"">53</div>","{""key"":null}","","5","true","false","odd","7",""
"","","","","","html-keyboard-response","91","271974","0.0-91.0","null","<div style=""font-size:60px;""></div>","null","","","","","","",""
"","","","","","html-keyboard-response","92","273976","0.0-92.0","null","<div style=""font-size:60px;"">+</div>","null","","","","","","",""
"","","","","","image-keyboard-response","93","279981","0.0-93.0","null","img/rural_eve_new_big_vehicle_1.png","null","true","6","","","","",""
"","","","","","html-keyboard-response","94","281988","0.0-94.0","null","<div style=""font-size:60px;"">+</div>","null","","","","","","",""
"","","","","","html-mouse-response","95","282945","0.0-95.0","","<div style=""font-size:60px;"">58</div>","{""key"":null}","","6","true","true","even","8",""
"","","","","","html-keyboard-response","96","282998","0.0-96.0","null","<div style=""font-size:60px;""></div>","null","","","","","","",""
"","","","","","html-mouse-response","97","283955","0.0-97.0","","<div style=""font-size:60px;"">54</div>","{""key"":null}","","6","true","false","even","8",""
"","","","","","html-keyboard-response","98","284007","0.0-98.0","null","<div style=""font-size:60px;""></div>","null","","","","","","",""
"","","","","","html-mouse-response","99","284964","0.0-99.0","","<div style=""font-size:60px;"">58</div>","{""key"":null}","","6","true","false","even","8",""
"","","","","","html-keyboard-response","100","285019","0.0-100.0","null","<div style=""font-size:60px;""></div>","null","","","","","","",""
"","","","","","html-mouse-response","101","285976","0.0-101.0","","<div style=""font-size:60px;"">54</div>","{""key"":null}","","6","true","false","even","8",""
"","","","","","html-keyboard-response","102","286033","0.0-102.0","null","<div style=""font-size:60px;""></div>","null","","","","","","",""
"","","","","","html-mouse-response","103","286988","0.0-103.0","","<div style=""font-size:60px;"">58</div>","{""key"":null}","","6","true","false","even","8",""
"","","","","","html-keyboard-response","104","287042","0.0-104.0","null","<div style=""font-size:60px;""></div>","null","","","","","","",""
"","","","","","html-mouse-response","105","287999","0.0-105.0","","<div style=""font-size:60px;"">54</div>","{""key"":null}","","6","true","false","even","8",""
"","","","","","html-keyboard-response","106","288054","0.0-106.0","null","<div style=""font-size:60px;""></div>","null","","","","","","",""
"","","","","","html-keyboard-response","107","290056","0.0-107.0","null","<div style=""font-size:60px;"">+</div>","null","","","","","","",""
"","","","","","image-keyboard-response","108","296061","0.0-108.0","null","img/rural_eve_old_small_furniture_1.png","null","true","7","","","","",""
"","","","","","html-keyboard-response","109","298067","0.0-109.0","null","<div style=""font-size:60px;"">+</div>","null","","","","","","",""
"","","","","","html-mouse-response","110","299022","0.0-110.0","","<div style=""font-size:60px;"">55</div>","{""key"":null}","","7","true","true","odd","8",""
"","","","","","html-keyboard-response","111","299075","0.0-111.0","null","<div style=""font-size:60px;""></div>","null","","","","","","",""
"","","","","","html-mouse-response","112","300029","0.0-112.0","","<div style=""font-size:60px;"">59</div>","{""key"":null}","","7","true","false","odd","8",""
"","","","","","html-keyboard-response","113","300084","0.0-113.0","null","<div style=""font-size:60px;""></div>","null","","","","","","",""
"","","","","","html-mouse-response","114","301037","0.0-114.0","","<div style=""font-size:60px;"">57</div>","{""key"":null}","","7","true","false","odd","8",""
"","","","","","html-keyboard-response","115","301090","0.0-115.0","null","<div style=""font-size:60px;""></div>","null","","","","","","",""
"","","","","","html-mouse-response","116","302046","0.0-116.0","","<div style=""font-size:60px;"">55</div>","{""key"":null}","","7","true","false","odd","8",""
"","","","","","html-keyboard-response","117","302098","0.0-117.0","null","<div style=""font-size:60px;""></div>","null","","","","","","",""
"","","","","","html-mouse-response","118","303053","0.0-118.0","","<div style=""font-size:60px;"">57</div>","{""key"":null}","","7","true","false","odd","8",""
"","","","","","html-keyboard-response","119","303106","0.0-119.0","null","<div style=""font-size:60px;""></div>","null","","","","","","",""
"","","","","","html-mouse-response","120","304061","0.0-120.0","","<div style=""font-size:60px;"">59</div>","{""key"":null}","","7","true","false","odd","8",""
"","","","","","html-keyboard-response","121","304113","0.0-121.0","null","<div style=""font-size:60px;""></div>","null","","","","","","",""
"","","","","","html-keyboard-response","122","306116","0.0-122.0","null","<div style=""font-size:60px;"">+</div>","null","","","","","","",""
"","","","","","image-keyboard-response","123","312125","0.0-123.0","null","img/rural_eve_old_small_church_1.png","null","true","8","","","","",""
"","","","","","html-keyboard-response","124","314132","0.0-124.0","null","<div style=""font-size:60px;"">+</div>","null","","","","","","",""
"","","","","","html-mouse-response","125","315088","0.0-125.0","","<div style=""font-size:60px;"">17</div>","{""key"":null}","","8","true","true","odd","1",""
"","","","","","html-keyboard-response","126","315140","0.0-126.0","null","<div style=""font-size:60px;""></div>","null","","","","","","",""
"","","","","","html-mouse-response","127","316096","0.0-127.0","","<div style=""font-size:60px;"">15</div>","{""key"":null}","","8","true","false","odd","1",""
"","","","","","html-keyboard-response","128","316149","0.0-128.0","null","<div style=""font-size:60px;""></div>","null","","","","","","",""
"","","","","","html-mouse-response","129","317103","0.0-129.0","","<div style=""font-size:60px;"">13</div>","{""key"":null}","","8","true","false","odd","1",""
"","","","","","html-keyboard-response","130","317156","0.0-130.0","null","<div style=""font-size:60px;""></div>","null","","","","","","",""
"","","","","","html-mouse-response","131","318112","0.0-131.0","","<div style=""font-size:60px;"">15</div>","{""key"":null}","","8","true","false","odd","1",""
"","","","","","html-keyboard-response","132","318167","0.0-132.0","null","<div style=""font-size:60px;""></div>","null","","","","","","",""
"","","","","","html-mouse-response","133","319122","0.0-133.0","","<div style=""font-size:60px;"">17</div>","{""key"":null}","","8","true","false","odd","1",""
"","","","","","html-keyboard-response","134","319177","0.0-134.0","null","<div style=""font-size:60px;""></div>","null","","","","","","",""
"","","","","","html-mouse-response","135","320134","0.0-135.0","","<div style=""font-size:60px;"">15</div>","{""key"":null}","","8","true","false","odd","1",""
"","","","","","html-keyboard-response","136","320188","0.0-136.0","null","<div style=""font-size:60px;""></div>","null","","","","","","",""
"","","","","","html-keyboard-response","137","322194","0.0-137.0","null","<div style=""font-size:60px;"">+</div>","null","","","","","","",""
"","","","","","image-keyboard-response","138","328202","0.0-138.0","null","img/rural_eve_old_black_man_1.png","null","true","9","","","","",""
"","","","","","html-keyboard-response","139","330208","0.0-139.0","null","<div style=""font-size:60px;"">+</div>","null","","","","","","",""
"","","","","","html-mouse-response","140","331164","0.0-140.0","","<div style=""font-size:60px;"">38</div>","{""key"":null}","","9","true","true","even","5",""
"","","","","","html-keyboard-response","141","331218","0.0-141.0","null","<div style=""font-size:60px;""></div>","null","","","","","","",""
"","","","","","html-mouse-response","142","332172","0.0-142.0","","<div style=""font-size:60px;"">40</div>","{""key"":null}","","9","true","false","even","5",""
"","","","","","html-keyboard-response","143","332227","0.0-143.0","null","<div style=""font-size:60px;""></div>","null","","","","","","",""
"","","","","","html-mouse-response","144","333183","0.0-144.0","","<div style=""font-size:60px;"">38</div>","{""key"":null}","","9","true","false","even","5",""
"","","","","","html-keyboard-response","145","333236","0.0-145.0","null","<div style=""font-size:60px;""></div>","null","","","","","","",""
"","","","","","html-mouse-response","146","334193","0.0-146.0","","<div style=""font-size:60px;"">36</div>","{""key"":null}","","9","true","false","even","5",""
"","","","","","html-keyboard-response","147","334247","0.0-147.0","null","<div style=""font-size:60px;""></div>","null","","","","","","",""
"","","","","","html-mouse-response","148","335204","0.0-148.0","","<div style=""font-size:60px;"">38</div>","{""key"":null}","","9","true","false","even","5",""
"","","","","","html-keyboard-response","149","335260","0.0-149.0","null","<div style=""font-size:60px;""></div>","null","","","","","","",""
"","","","","","html-mouse-response","150","336214","0.0-150.0","","<div style=""font-size:60px;"">40</div>","{""key"":null}","","9","true","false","even","5",""
"","","","","","html-keyboard-response","151","336271","0.0-151.0","null","<div style=""font-size:60px;""></div>","null","","","","","","",""
"","","","","","html-keyboard-response","152","338278","0.0-152.0","null","<div style=""font-size:60px;"">+</div>","null","","","","","","",""
"","","","","","image-keyboard-response","153","344284","0.0-153.0","null","img/rural_eve_old_white_man_1.png","null","true","10","","","","",""
"","","","","","html-keyboard-response","154","346288","0.0-154.0","null","<div style=""font-size:60px;"">+</div>","null","","","","","","",""
"","","","","","html-mouse-response","155","347245","0.0-155.0","","<div style=""font-size:60px;"">29</div>","{""key"":null}","","10","true","true","odd","3",""
"","","","","","html-keyboard-response","156","347297","0.0-156.0","null","<div style=""font-size:60px;""></div>","null","","","","","","",""
"","","","","","html-mouse-response","157","348254","0.0-157.0","","<div style=""font-size:60px;"">27</div>","{""key"":null}","","10","true","false","odd","3",""
"","","","","","html-keyboard-response","158","348307","0.0-158.0","null","<div style=""font-size:60px;""></div>","null","","","","","","",""
"","","","","","html-mouse-response","159","349263","0.0-159.0","","<div style=""font-size:60px;"">25</div>","{""key"":null}","","10","true","false","odd","3",""
"","","","","","html-keyboard-response","160","349316","0.0-160.0","null","<div style=""font-size:60px;""></div>","null","","","","","","",""
"","","","","","html-mouse-response","161","350273","0.0-161.0","","<div style=""font-size:60px;"">27</div>","{""key"":null}","","10","true","false","odd","3",""
"","","","","","html-keyboard-response","162","350330","0.0-162.0","null","<div style=""font-size:60px;""></div>","null","","","","","","",""
"","","","","","html-mouse-response","163","351286","0.0-163.0","","<div style=""font-size:60px;"">25</div>","{""key"":null}","","10","true","false","odd","3",""
"","","","","","html-keyboard-response","164","351343","0.0-164.0","null","<div style=""font-size:60px;""></div>","null","","","","","","",""
"","","","","","html-mouse-response","165","352299","0.0-165.0","","<div style=""font-size:60px;"">27</div>","{""key"":null}","","10","true","false","odd","3",""
"","","","","","html-keyboard-response","166","352352","0.0-166.0","null","<div style=""font-size:60px;""></div>","null","","","","","","",""
"","","","","","html-keyboard-response","167","354358","0.0-167.0","null","<div style=""font-size:60px;"">+</div>","null","","","","","","",""
"","","","","","image-keyboard-response","168","360362","0.0-168.0","null","img/rural_eve_young_white_man_1.png","null","true","11","","","","",""
"","","","","","html-keyboard-response","169","362368","0.0-169.0","null","<div style=""font-size:60px;"">+</div>","null","","","","","","",""
"","","","","","html-mouse-response","170","363325","0.0-170.0","","<div style=""font-size:60px;"">61</div>","{""key"":null}","","11","true","true","odd","9",""
"","","","","","html-keyboard-response","171","363378","0.0-171.0","null","<div style=""font-size:60px;""></div>","null","","","","","","",""
"","","","","","html-mouse-response","172","364331","0.0-172.0","","<div style=""font-size:60px;"">63</div>","{""key"":null}","","11","true","false","odd","9",""
"","","","","","html-keyboard-response","173","364383","0.0-173.0","null","<div style=""font-size:60px;""></div>","null","","","","","","",""
"","","","","","html-mouse-response","174","365339","0.0-174.0","","<div style=""font-size:60px;"">65</div>","{""key"":null}","","11","true","false","odd","9",""
"","","","","","html-keyboard-response","175","365392","0.0-175.0","null","<div style=""font-size:60px;""></div>","null","","","","","","",""
"","","","","","html-mouse-response","176","366347","0.0-176.0","","<div style=""font-size:60px;"">63</div>","{""key"":null}","","11","true","false","odd","9",""
"","","","","","html-keyboard-response","177","366400","0.0-177.0","null","<div style=""font-size:60px;""></div>","null","","","","","","",""
"","","","","","html-mouse-response","178","367357","0.0-178.0","","<div style=""font-size:60px;"">65</div>","{""key"":null}","","11","true","false","odd","9",""
"","","","","","html-keyboard-response","179","367413","0.0-179.0","null","<div style=""font-size:60px;""></div>","null","","","","","","",""
"","","","","","html-mouse-response","180","368370","0.0-180.0","","<div style=""font-size:60px;"">63</div>","{""key"":null}","","11","true","false","odd","9",""
"","","","","","html-keyboard-response","181","368425","0.0-181.0","null","<div style=""font-size:60px;""></div>","null","","","","","","",""
"","","","","","html-keyboard-response","182","370427","0.0-182.0","null","<div style=""font-size:60px;"">+</div>","null","","","","","","",""
"","","","","","image-keyboard-response","183","376432","0.0-183.0","null","img/rural_eve_new_small_vehicle_1.png","null","true","12","","","","",""
"","","","","","html-keyboard-response","184","378439","0.0-184.0","null","<div style=""font-size:60px;"">+</div>","null","","","","","","",""
"","","","","","html-mouse-response","185","379395","0.0-185.0","","<div style=""font-size:60px;"">82</div>","{""key"":null}","","12","true","true","even","12",""
"","","","","","html-keyboard-response","186","379448","0.0-186.0","null","<div style=""font-size:60px;""></div>","null","","","","","","",""
"","","","","","html-mouse-response","187","380403","0.0-187.0","","<div style=""font-size:60px;"">80</div>","{""key"":null}","","12","true","false","even","12",""
"","","","","","html-keyboard-response","188","380456","0.0-188.0","null","<div style=""font-size:60px;""></div>","null","","","","","","",""
"","","","","","html-mouse-response","189","381411","0.0-189.0","","<div style=""font-size:60px;"">82</div>","{""key"":null}","","12","true","false","even","12",""
"","","","","","html-keyboard-response","190","381464","0.0-190.0","null","<div style=""font-size:60px;""></div>","null","","","","","","",""
"","","","","","html-mouse-response","191","382419","0.0-191.0","","<div style=""font-size:60px;"">80</div>","{""key"":null}","","12","true","false","even","12",""
"","","","","","html-keyboard-response","192","382474","0.0-192.0","null","<div style=""font-size:60px;""></div>","null","","","","","","",""
"","","","","","html-mouse-response","193","383432","0.0-193.0","","<div style=""font-size:60px;"">78</div>","{""key"":null}","","12","true","false","even","12",""
"","","","","","html-keyboard-response","194","383488","0.0-194.0","null","<div style=""font-size:60px;""></div>","null","","","","","","",""
"","","","","","html-mouse-response","195","384442","0.0-195.0","","<div style=""font-size:60px;"">80</div>","{""key"":null}","","12","true","false","even","12",""
"","","","","","html-keyboard-response","196","384499","0.0-196.0","null","<div style=""font-size:60px;""></div>","null","","","","","","",""
"","","","","","html-keyboard-response","197","386501","0.0-197.0","null","<div style=""font-size:60px;"">+</div>","null","","","","","","",""
"","","","","","image-keyboard-response","198","392506","0.0-198.0","null","img/rural_eve_new_big_furniture_1.png","null","true","13","","","","",""
"","","","","","html-keyboard-response","199","394513","0.0-199.0","null","<div style=""font-size:60px;"">+</div>","null","","","","","","",""
"","","","","","html-mouse-response","200","395470","0.0-200.0","","<div style=""font-size:60px;"">70</div>","{""key"":null}","","13","true","true","even","10",""
"","","","","","html-keyboard-response","201","395521","0.0-201.0","null","<div style=""font-size:60px;""></div>","null","","","","","","",""
"","","","","","html-mouse-response","202","396478","0.0-202.0","","<div style=""font-size:60px;"">68</div>","{""key"":null}","","13","true","false","even","10",""
"","","","","","html-keyboard-response","203","396530","0.0-203.0","null","<div style=""font-size:60px;""></div>","null","","","","","","",""
"","","","","","html-mouse-response","204","397485","0.0-204.0","","<div style=""font-size:60px;"">66</div>","{""key"":null}","","13","true","false","even","10",""
"","","","","","html-keyboard-response","205","397538","0.0-205.0","null","<div style=""font-size:60px;""></div>","null","","","","","","",""
"","","","","","html-mouse-response","206","398494","0.0-206.0","","<div style=""font-size:60px;"">70</div>","{""key"":null}","","13","true","false","even","10",""
"","","","","","html-keyboard-response","207","398547","0.0-207.0","null","<div style=""font-size:60px;""></div>","null","","","","","","",""
"","","","","","html-mouse-response","208","399503","0.0-208.0","","<div style=""font-size:60px;"">66</div>","{""key"":null}","","13","true","false","even","10",""
"","","","","","html-keyboard-response","209","399560","0.0-209.0","null","<div style=""font-size:60px;""></div>","null","","","","","","",""
"","","","","","html-mouse-response","210","400516","0.0-210.0","","<div style=""font-size:60px;"">70</div>","{""key"":null}","","13","true","false","even","10",""
"","","","","","html-keyboard-response","211","400573","0.0-211.0","null","<div style=""font-size:60px;""></div>","null","","","","","","",""
"","","","","","html-keyboard-response","212","402580","0.0-212.0","null","<div style=""font-size:60px;"">+</div>","null","","","","","","",""
"","","","","","image-keyboard-response","213","408588","0.0-213.0","null","img/rural_eve_old_big_furniture_1.png","null","true","14","","","","",""
"","","","","","html-keyboard-response","214","410595","0.0-214.0","null","<div style=""font-size:60px;"">+</div>","null","","","","","","",""
"","","","","","html-mouse-response","215","411551","0.0-215.0","","<div style=""font-size:60px;"">71</div>","{""key"":null}","","14","true","true","odd","10",""
"","","","","","html-keyboard-response","216","411607","0.0-216.0","null","<div style=""font-size:60px;""></div>","null","","","","","","",""
"","","","","","html-mouse-response","217","412564","0.0-217.0","","<div style=""font-size:60px;"">69</div>","{""key"":null}","","14","true","false","odd","10",""
"","","","","","html-keyboard-response","218","412616","0.0-218.0","null","<div style=""font-size:60px;""></div>","null","","","","","","",""
"","","","","","html-mouse-response","219","413572","0.0-219.0","","<div style=""font-size:60px;"">71</div>","{""key"":null}","","14","true","false","odd","10",""
"","","","","","html-keyboard-response","220","413625","0.0-220.0","null","<div style=""font-size:60px;""></div>","null","","","","","","",""
"","","","","","html-mouse-response","221","414580","0.0-221.0","","<div style=""font-size:60px;"">69</div>","{""key"":null}","","14","true","false","odd","10",""
"","","","","","html-keyboard-response","222","414634","0.0-222.0","null","<div style=""font-size:60px;""></div>","null","","","","","","",""
"","","","","","html-mouse-response","223","415591","0.0-223.0","","<div style=""font-size:60px;"">67</div>","{""key"":null}","","14","true","false","odd","10",""
"","","","","","html-keyboard-response","224","415646","0.0-224.0","null","<div style=""font-size:60px;""></div>","null","","","","","","",""
"","","","","","html-mouse-response","225","416603","0.0-225.0","","<div style=""font-size:60px;"">71</div>","{""key"":null}","","14","true","false","odd","10",""
"","","","","","html-keyboard-response","226","416660","0.0-226.0","null","<div style=""font-size:60px;""></div>","null","","","","","","",""
"","","","","","html-keyboard-response","227","418667","0.0-227.0","null","<div style=""font-size:60px;"">+</div>","null","","","","","","",""
"","","","","","image-keyboard-response","228","424671","0.0-228.0","null","img/rural_eve_new_small_furniture_1.png","null","true","15","","","","",""
"","","","","","html-keyboard-response","229","426680","0.0-229.0","null","<div style=""font-size:60px;"">+</div>","null","","","","","","",""
"","","","","","html-mouse-response","230","427637","0.0-230.0","","<div style=""font-size:60px;"">37</div>","{""key"":null}","","15","true","true","odd","5",""
"","","","","","html-keyboard-response","231","427688","0.0-231.0","null","<div style=""font-size:60px;""></div>","null","","","","","","",""
"","","","","","html-mouse-response","232","428644","0.0-232.0","","<div style=""font-size:60px;"">39</div>","{""key"":null}","","15","true","false","odd","5",""
"","","","","","html-keyboard-response","233","428696","0.0-233.0","null","<div style=""font-size:60px;""></div>","null","","","","","","",""
"","","","","","html-mouse-response","234","429652","0.0-234.0","","<div style=""font-size:60px;"">41</div>","{""key"":null}","","15","true","false","odd","5",""
"","","","","","html-keyboard-response","235","429705","0.0-235.0","null","<div style=""font-size:60px;""></div>","null","","","","","","",""
"","","","","","html-mouse-response","236","430663","0.0-236.0","","<div style=""font-size:60px;"">37</div>","{""key"":null}","","15","true","false","odd","5",""
"","","","","","html-keyboard-response","237","430717","0.0-237.0","null","<div style=""font-size:60px;""></div>","null","","","","","","",""
"","","","","","html-mouse-response","238","431674","0.0-238.0","","<div style=""font-size:60px;"">39</div>","{""key"":null}","","15","true","false","odd","5",""
"","","","","","html-keyboard-response","239","431730","0.0-239.0","null","<div style=""font-size:60px;""></div>","null","","","","","","",""
"","","","","","html-mouse-response","240","432683","0.0-240.0","","<div style=""font-size:60px;"">41</div>","{""key"":null}","","15","true","false","odd","5",""
"","","","","","html-keyboard-response","241","432740","0.0-241.0","null","<div style=""font-size:60px;""></div>","null","","","","","","",""
"","","","","","html-keyboard-response","242","434745","0.0-242.0","null","<div style=""font-size:60px;"">+</div>","null","","","","","","",""
"","","","","","image-keyboard-response","243","440750","0.0-243.0","null","img/rural_eve_new_small_church_1.png","null","true","16","","","","",""
"","","","","","html-keyboard-response","244","442756","0.0-244.0","null","<div style=""font-size:60px;"">+</div>","null","","","","","","",""
"","","","","","html-mouse-response","245","443713","0.0-245.0","","<div style=""font-size:60px;"">79</div>","{""key"":null}","","16","true","true","odd","12",""
"","","","","","html-keyboard-response","246","443766","0.0-246.0","null","<div style=""font-size:60px;""></div>","null","","","","","","",""
"","","","","","html-mouse-response","247","444721","0.0-247.0","","<div style=""font-size:60px;"">83</div>","{""key"":null}","","16","true","false","odd","12",""
"","","","","","html-keyboard-response","248","444774","0.0-248.0","null","<div style=""font-size:60px;""></div>","null","","","","","","",""
"","","","","","html-mouse-response","249","445729","0.0-249.0","","<div style=""font-size:60px;"">79</div>","{""key"":null}","","16","true","false","odd","12",""
"","","","","","html-keyboard-response","250","445783","0.0-250.0","null","<div style=""font-size:60px;""></div>","null","","","","","","",""
"","","","","","html-mouse-response","251","446739","0.0-251.0","","<div style=""font-size:60px;"">81</div>","{""key"":null}","","16","true","false","odd","12",""
"","","","","","html-keyboard-response","252","446792","0.0-252.0","null","<div style=""font-size:60px;""></div>","null","","","","","","",""
"","","","","","html-mouse-response","253","447747","0.0-253.0","","<div style=""font-size:60px;"">83</div>","{""key"":null}","","16","true","false","odd","12",""
"","","","","","html-keyboard-response","254","447804","0.0-254.0","null","<div style=""font-size:60px;""></div>","null","","","","","","",""
"","","","","","html-mouse-response","255","448761","0.0-255.0","","<div style=""font-size:60px;"">79</div>","{""key"":null}","","16","true","false","odd","12",""
"","","","","","html-keyboard-response","256","448818","0.0-256.0","null","<div style=""font-size:60px;""></div>","null","","","","","","",""
"","","","","","html-keyboard-response","257","450824","0.0-257.0","null","<div style=""font-size:60px;"">+</div>","null","","","","","","",""
"","","","","","image-keyboard-response","258","456829","0.0-258.0","null","img/rural_eve_old_black_woman_1.png","null","true","17","","","","",""
"","","","","","html-keyboard-response","259","458836","0.0-259.0","null","<div style=""font-size:60px;"">+</div>","null","","","","","","",""
"","","","","","html-mouse-response","260","459793","0.0-260.0","","<div style=""font-size:60px;"">72</div>","{""key"":null}","","17","true","true","even","11",""
"","","","","","html-keyboard-response","261","459846","0.0-261.0","null","<div style=""font-size:60px;""></div>","null","","","","","","",""
"","","","","","html-mouse-response","262","460803","0.0-262.0","","<div style=""font-size:60px;"">74</div>","{""key"":null}","","17","true","false","even","11",""
"","","","","","html-keyboard-response","263","460856","0.0-263.0","null","<div style=""font-size:60px;""></div>","null","","","","","","",""
"","","","","","html-mouse-response","264","461811","0.0-264.0","","<div style=""font-size:60px;"">76</div>","{""key"":null}","","17","true","false","even","11",""
"","","","","","html-keyboard-response","265","461864","0.0-265.0","null","<div style=""font-size:60px;""></div>","null","","","","","","",""
"","","","","","html-mouse-response","266","462819","0.0-266.0","","<div style=""font-size:60px;"">74</div>","{""key"":null}","","17","true","false","even","11",""
"","","","","","html-keyboard-response","267","462874","0.0-267.0","null","<div style=""font-size:60px;""></div>","null","","","","","","",""
"","","","","","html-mouse-response","268","463827","0.0-268.0","","<div style=""font-size:60px;"">72</div>","{""key"":null}","","17","true","false","even","11",""
"","","","","","html-keyboard-response","269","463882","0.0-269.0","null","<div style=""font-size:60px;""></div>","null","","","","","","",""
"","","","","","html-mouse-response","270","464838","0.0-270.0","","<div style=""font-size:60px;"">76</div>","{""key"":null}","","17","true","false","even","11",""
"","","","","","html-keyboard-response","271","464892","0.0-271.0","null","<div style=""font-size:60px;""></div>","null","","","","","","",""
"","","","","","html-keyboard-response","272","466899","0.0-272.0","null","<div style=""font-size:60px;"">+</div>","null","","","","","","",""
"","","","","","image-keyboard-response","273","472907","0.0-273.0","null","img/rural_eve_old_big_house_1.png","null","true","18","","","","",""
"","","","","","html-keyboard-response","274","474914","0.0-274.0","null","<div style=""font-size:60px;"">+</div>","null","","","","","","",""
"","","","","","html-mouse-response","275","475871","0.0-275.0","","<div style=""font-size:60px;"">33</div>","{""key"":null}","","18","true","true","odd","4",""
"","","","","","html-keyboard-response","276","475923","0.0-276.0","null","<div style=""font-size:60px;""></div>","null","","","","","","",""
"","","","","","html-mouse-response","277","476880","0.0-277.0","","<div style=""font-size:60px;"">35</div>","{""key"":null}","","18","true","false","odd","4",""
"","","","","","html-keyboard-response","278","476934","0.0-278.0","null","<div style=""font-size:60px;""></div>","null","","","","","","",""
"","","","","","html-mouse-response","279","477890","0.0-279.0","","<div style=""font-size:60px;"">33</div>","{""key"":null}","","18","true","false","odd","4",""
"","","","","","html-keyboard-response","280","477943","0.0-280.0","null","<div style=""font-size:60px;""></div>","null","","","","","","",""
"","","","","","html-mouse-response","281","478901","0.0-281.0","","<div style=""font-size:60px;"">35</div>","{""key"":null}","","18","true","false","odd","4",""
"","","","","","html-keyboard-response","282","478957","0.0-282.0","null","<div style=""font-size:60px;""></div>","null","","","","","","",""
"","","","","","html-mouse-response","283","479913","0.0-283.0","","<div style=""font-size:60px;"">31</div>","{""key"":null}","","18","true","false","odd","4",""
"","","","","","html-keyboard-response","284","479971","0.0-284.0","null","<div style=""font-size:60px;""></div>","null","","","","","","",""
"","","","","","html-mouse-response","285","480927","0.0-285.0","","<div style=""font-size:60px;"">33</div>","{""key"":null}","","18","true","false","odd","4",""
"","","","","","html-keyboard-response","286","480984","0.0-286.0","null","<div style=""font-size:60px;""></div>","null","","","","","","",""
"","","","","","html-keyboard-response","287","482989","0.0-287.0","null","<div style=""font-size:60px;"">+</div>","null","","","","","","",""
"","","","","","image-keyboard-response","288","488996","0.0-288.0","null","img/rural_eve_old_small_house_1.png","null","true","19","","","","",""
"","","","","","html-keyboard-response","289","491004","0.0-289.0","null","<div style=""font-size:60px;"">+</div>","null","","","","","","",""
"","","","","","html-mouse-response","290","491959","0.0-290.0","","<div style=""font-size:60px;"">23</div>","{""key"":null}","","19","true","true","odd","2",""
"","","","","","html-keyboard-response","291","492013","0.0-291.0","null","<div style=""font-size:60px;""></div>","null","","","","","","",""
"","","","","","html-mouse-response","292","492967","0.0-292.0","","<div style=""font-size:60px;"">19</div>","{""key"":null}","","19","true","false","odd","2",""
"","","","","","html-keyboard-response","293","493020","0.0-293.0","null","<div style=""font-size:60px;""></div>","null","","","","","","",""
"","","","","","html-mouse-response","294","493977","0.0-294.0","","<div style=""font-size:60px;"">23</div>","{""key"":null}","","19","true","false","odd","2",""
"","","","","","html-keyboard-response","295","494030","0.0-295.0","null","<div style=""font-size:60px;""></div>","null","","","","","","",""
"","","","","","html-mouse-response","296","494987","0.0-296.0","","<div style=""font-size:60px;"">21</div>","{""key"":null}","","19","true","false","odd","2",""
"","","","","","html-keyboard-response","297","495042","0.0-297.0","null","<div style=""font-size:60px;""></div>","null","","","","","","",""
"","","","","","html-mouse-response","298","495996","0.0-298.0","","<div style=""font-size:60px;"">23</div>","{""key"":null}","","19","true","false","odd","2",""
"","","","","","html-keyboard-response","299","496052","0.0-299.0","null","<div style=""font-size:60px;""></div>","null","","","","","","",""
"","","","","","html-mouse-response","300","497007","0.0-300.0","","<div style=""font-size:60px;"">21</div>","{""key"":null}","","19","true","false","odd","2",""
"","","","","","html-keyboard-response","301","497062","0.0-301.0","null","<div style=""font-size:60px;""></div>","null","","","","","","",""
"","","","","","html-keyboard-response","302","499068","0.0-302.0","null","<div style=""font-size:60px;"">+</div>","null","","","","","","",""
"","","","","","image-keyboard-response","303","505073","0.0-303.0","null","img/rural_eve_old_big_church_1.png","null","true","20","","","","",""
"","","","","","html-keyboard-response","304","507079","0.0-304.0","null","<div style=""font-size:60px;"">+</div>","null","","","","","","",""
"","","","","","html-mouse-response","305","508033","0.0-305.0","","<div style=""font-size:60px;"">42</div>","{""key"":null}","","20","true","true","even","6",""
"","","","","","html-keyboard-response","306","508089","0.0-306.0","null","<div style=""font-size:60px;""></div>","null","","","","","","",""
"","","","","","html-mouse-response","307","509041","0.0-307.0","","<div style=""font-size:60px;"">46</div>","{""key"":null}","","20","true","false","even","6",""
"","","","","","html-keyboard-response","308","509094","0.0-308.0","null","<div style=""font-size:60px;""></div>","null","","","","","","",""
"","","","","","html-mouse-response","309","510051","0.0-309.0","","<div style=""font-size:60px;"">42</div>","{""key"":null}","","20","true","false","even","6",""
"","","","","","html-keyboard-response","310","510105","0.0-310.0","null","<div style=""font-size:60px;""></div>","null","","","","","","",""
"","","","","","html-mouse-response","311","511062","0.0-311.0","","<div style=""font-size:60px;"">44</div>","{""key"":null}","","20","true","false","even","6",""
"","","","","","html-keyboard-response","312","511116","0.0-312.0","null","<div style=""font-size:60px;""></div>","null","","","","","","",""
"","","","","","html-mouse-response","313","512073","0.0-313.0","","<div style=""font-size:60px;"">46</div>","{""key"":null}","","20","true","false","even","6",""
"","","","","","html-keyboard-response","314","512127","0.0-314.0","null","<div style=""font-size:60px;""></div>","null","","","","","","",""
"","","","","","html-mouse-response","315","513084","0.0-315.0","","<div style=""font-size:60px;"">42</div>","{""key"":null}","","20","true","false","even","6",""
"","","","","","html-keyboard-response","316","513140","0.0-316.0","null","<div style=""font-size:60px;""></div>","null","","","","","","",""
"","","","","","html-keyboard-response","317","515146","0.0-317.0","null","<div style=""font-size:60px;"">+</div>","null","","","","","","",""
"","","","","","image-keyboard-response","318","521153","0.0-318.0","null","img/rural_eve_new_small_house_1.png","null","true","21","","","","",""
"","","","","","html-keyboard-response","319","523160","0.0-319.0","null","<div style=""font-size:60px;"">+</div>","null","","","","","","",""
"","","","","","html-mouse-response","320","524117","0.0-320.0","","<div style=""font-size:60px;"">60</div>","{""key"":null}","","21","true","true","even","9",""
"","","","","","html-keyboard-response","321","524169","0.0-321.0","null","<div style=""font-size:60px;""></div>","null","","","","","","",""
"","","","","","html-mouse-response","322","525124","0.0-322.0","","<div style=""font-size:60px;"">62</div>","{""key"":null}","","21","true","false","even","9",""
"","","","","","html-keyboard-response","323","525176","0.0-323.0","null","<div style=""font-size:60px;""></div>","null","","","","","","",""
"","","","","","html-mouse-response","324","526132","0.0-324.0","","<div style=""font-size:60px;"">60</div>","{""key"":null}","","21","true","false","even","9",""
"","","","","","html-keyboard-response","325","526185","0.0-325.0","null","<div style=""font-size:60px;""></div>","null","","","","","","",""
"","","","","","html-mouse-response","326","527142","0.0-326.0","","<div style=""font-size:60px;"">64</div>","{""key"":null}","","21","true","false","even","9",""
"","","","","","html-keyboard-response","327","527198","0.0-327.0","null","<div style=""font-size:60px;""></div>","null","","","","","","",""
"","","","","","html-mouse-response","328","528153","0.0-328.0","","<div style=""font-size:60px;"">62</div>","{""key"":null}","","21","true","false","even","9",""
"","","","","","html-keyboard-response","329","528210","0.0-329.0","null","<div style=""font-size:60px;""></div>","null","","","","","","",""
"","","","","","html-mouse-response","330","529167","0.0-330.0","","<div style=""font-size:60px;"">64</div>","{""key"":null}","","21","true","false","even","9",""
"","","","","","html-keyboard-response","331","529220","0.0-331.0","null","<div style=""font-size:60px;""></div>","null","","","","","","",""
"","","","","","html-keyboard-response","332","531227","0.0-332.0","null","<div style=""font-size:60px;"">+</div>","null","","","","","","",""
"","","","","","image-keyboard-response","333","537232","0.0-333.0","null","img/rural_eve_new_big_house_1.png","null","true","22","","","","",""
"","","","","","html-keyboard-response","334","539238","0.0-334.0","null","<div style=""font-size:60px;"">+</div>","null","","","","","","",""
"","","","","","html-mouse-response","335","540192","0.0-335.0","","<div style=""font-size:60px;"">43</div>","{""key"":null}","","22","true","true","odd","6",""
"","","","","","html-keyboard-response","336","540247","0.0-336.0","null","<div style=""font-size:60px;""></div>","null","","","","","","",""
"","","","","","html-mouse-response","337","541203","0.0-337.0","","<div style=""font-size:60px;"">47</div>","{""key"":null}","","22","true","false","odd","6",""
"","","","","","html-keyboard-response","338","541257","0.0-338.0","null","<div style=""font-size:60px;""></div>","null","","","","","","",""
"","","","","","html-mouse-response","339","542210","0.0-339.0","","<div style=""font-size:60px;"">43</div>","{""key"":null}","","22","true","false","odd","6",""
"","","","","","html-keyboard-response","340","542264","0.0-340.0","null","<div style=""font-size:60px;""></div>","null","","","","","","",""
"","","","","","html-mouse-response","341","543219","0.0-341.0","","<div style=""font-size:60px;"">45</div>","{""key"":null}","","22","true","false","odd","6",""
"","","","","","html-keyboard-response","342","543275","0.0-342.0","null","<div style=""font-size:60px;""></div>","null","","","","","","",""
"","","","","","html-mouse-response","343","544229","0.0-343.0","","<div style=""font-size:60px;"">47</div>","{""key"":null}","","22","true","false","odd","6",""
"","","","","","html-keyboard-response","344","544283","0.0-344.0","null","<div style=""font-size:60px;""></div>","null","","","","","","",""
"","","","","","html-mouse-response","345","545239","0.0-345.0","","<div style=""font-size:60px;"">43</div>","{""key"":null}","","22","true","false","odd","6",""
"","","","","","html-keyboard-response","346","545296","0.0-346.0","null","<div style=""font-size:60px;""></div>","null","","","","","","",""
"","","","","","html-keyboard-response","347","547303","0.0-347.0","null","<div style=""font-size:60px;"">+</div>","null","","","","","","",""
"","","","","","image-keyboard-response","348","553310","0.0-348.0","null","img/rural_eve_old_small_vehicle_1.png","null","true","23","","","","",""
"","","","","","html-keyboard-response","349","555312","0.0-349.0","null","<div style=""font-size:60px;"">+</div>","null","","","","","","",""
"","","","","","html-mouse-response","350","556268","0.0-350.0","","<div style=""font-size:60px;"">16</div>","{""key"":null}","","23","true","true","even","1",""
"","","","","","html-keyboard-response","351","556325","0.0-351.0","null","<div style=""font-size:60px;""></div>","null","","","","","","",""
"","","","","","html-mouse-response","352","557282","0.0-352.0","","<div style=""font-size:60px;"">14</div>","{""key"":null}","","23","true","false","even","1",""
"","","","","","html-keyboard-response","353","557334","0.0-353.0","null","<div style=""font-size:60px;""></div>","null","","","","","","",""
"","","","","","html-mouse-response","354","558291","0.0-354.0","","<div style=""font-size:60px;"">12</div>","{""key"":null}","","23","true","false","even","1",""
"","","","","","html-keyboard-response","355","558344","0.0-355.0","null","<div style=""font-size:60px;""></div>","null","","","","","","",""
"","","","","","html-mouse-response","356","559302","0.0-356.0","","<div style=""font-size:60px;"">16</div>","{""key"":null}","","23","true","false","even","1",""
"","","","","","html-keyboard-response","357","559356","0.0-357.0","null","<div style=""font-size:60px;""></div>","null","","","","","","",""
"","","","","","html-mouse-response","358","560312","0.0-358.0","","<div style=""font-size:60px;"">12</div>","{""key"":null}","","23","true","false","even","1",""
"","","","","","html-keyboard-response","359","560368","0.0-359.0","null","<div style=""font-size:60px;""></div>","null","","","","","","",""
"","","","","","html-mouse-response","360","561325","0.0-360.0","","<div style=""font-size:60px;"">14</div>","{""key"":null}","","23","true","false","even","1",""
"","","","","","html-keyboard-response","361","561381","0.0-361.0","null","<div style=""font-size:60px;""></div>","null","","","","","","",""
"","","","","","grid-select","362","578374","0.0-362.0","","","[""rural_eve_old_black_man_2"",""rural_eve_old_white_woman_2""]","","","","","","","true"
"","","","","","html-keyboard-response","363","588808","0.0-363.0","10431","<div style=""font-size:60px;"">Please wait for next TR to begin! :) </div>","t","","","","","","",""
"","","","","","html-keyboard-response","364","590814","0.0-364.0","null","<div style=""font-size:60px;"">+</div>","null","","","","","","",""
"","","","","","image-keyboard-response","365","596822","0.0-365.0","null","img/urban_eve_new_small_church_1.png","null","true","24","","","","",""
"","","","","","html-keyboard-response","366","598829","0.0-366.0","null","<div style=""font-size:60px;"">+</div>","null","","","","","","",""
"","","","","","html-mouse-response","367","599785","0.0-367.0","","<div style=""font-size:60px;"">77</div>","{""key"":null}","","24","true","true","odd","11",""
"","","","","","html-keyboard-response","368","599838","0.0-368.0","null","<div style=""font-size:60px;""></div>","null","","","","","","",""
"","","","","","html-mouse-response","369","600796","0.0-369.0","","<div style=""font-size:60px;"">75</div>","{""key"":null}","","24","true","false","odd","11",""
"","","","","","html-keyboard-response","370","600849","0.0-370.0","null","<div style=""font-size:60px;""></div>","null","","","","","","",""
"","","","","","html-mouse-response","371","601801","0.0-371.0","","<div style=""font-size:60px;"">73</div>","{""key"":null}","","24","true","false","odd","11",""
"","","","","","html-keyboard-response","372","601853","0.0-372.0","null","<div style=""font-size:60px;""></div>","null","","","","","","",""
"","","","","","html-mouse-response","373","602809","0.0-373.0","","<div style=""font-size:60px;"">75</div>","{""key"":null}","","24","true","false","odd","11",""
"","","","","","html-keyboard-response","374","602863","0.0-374.0","null","<div style=""font-size:60px;""></div>","null","","","","","","",""
"","","","","","html-mouse-response","375","603817","0.0-375.0","","<div style=""font-size:60px;"">77</div>","{""key"":null}","","24","true","false","odd","11",""
"","","","","","html-keyboard-response","376","603873","0.0-376.0","null","<div style=""font-size:60px;""></div>","null","","","","","","",""
"","","","","","html-mouse-response","377","604829","0.0-377.0","","<div style=""font-size:60px;"">75</div>","{""key"":null}","","24","true","false","odd","11",""
"","","","","","html-keyboard-response","378","604884","0.0-378.0","null","<div style=""font-size:60px;""></div>","null","","","","","","",""
"","","","","","html-keyboard-response","379","606890","0.0-379.0","null","<div style=""font-size:60px;"">+</div>","null","","","","","","",""
"","","","","","image-keyboard-response","380","612894","0.0-380.0","null","img/urban_eve_young_white_woman_1.png","null","true","25","","","","",""
"","","","","","html-keyboard-response","381","614896","0.0-381.0","null","<div style=""font-size:60px;"">+</div>","null","","","","","","",""
"","","","","","html-mouse-response","382","615850","0.0-382.0","","<div style=""font-size:60px;"">66</div>","{""key"":null}","","25","true","true","even","10",""
"","","","","","html-keyboard-response","383","615907","0.0-383.0","null","<div style=""font-size:60px;""></div>","null","","","","","","",""
"","","","","","html-mouse-response","384","616865","0.0-384.0","","<div style=""font-size:60px;"">68</div>","{""key"":null}","","25","true","false","even","10",""
"","","","","","html-keyboard-response","385","616917","0.0-385.0","null","<div style=""font-size:60px;""></div>","null","","","","","","",""
"","","","","","html-mouse-response","386","617873","0.0-386.0","","<div style=""font-size:60px;"">70</div>","{""key"":null}","","25","true","false","even","10",""
"","","","","","html-keyboard-response","387","617927","0.0-387.0","null","<div style=""font-size:60px;""></div>","null","","","","","","",""
"","","","","","html-mouse-response","388","618883","0.0-388.0","","<div style=""font-size:60px;"">66</div>","{""key"":null}","","25","true","false","even","10",""
"","","","","","html-keyboard-response","389","618937","0.0-389.0","null","<div style=""font-size:60px;""></div>","null","","","","","","",""
"","","","","","html-mouse-response","390","619894","0.0-390.0","","<div style=""font-size:60px;"">70</div>","{""key"":null}","","25","true","false","even","10",""
"","","","","","html-keyboard-response","391","619947","0.0-391.0","null","<div style=""font-size:60px;""></div>","null","","","","","","",""
"","","","","","html-mouse-response","392","620904","0.0-392.0","","<div style=""font-size:60px;"">66</div>","{""key"":null}","","25","true","false","even","10",""
"","","","","","html-keyboard-response","393","620958","0.0-393.0","null","<div style=""font-size:60px;""></div>","null","","","","","","",""
"","","","","","html-keyboard-response","394","622965","0.0-394.0","null","<div style=""font-size:60px;"">+</div>","null","","","","","","",""
"","","","","","image-keyboard-response","395","628972","0.0-395.0","null","img/urban_eve_new_small_furniture_1.png","null","true","26","","","","",""
"","","","","","html-keyboard-response","396","630979","0.0-396.0","null","<div style=""font-size:60px;"">+</div>","null","","","","","","",""
"","","","","","html-mouse-response","397","631933","0.0-397.0","","<div style=""font-size:60px;"">58</div>","{""key"":null}","","26","true","true","even","8",""
"","","","","","html-keyboard-response","398","631987","0.0-398.0","null","<div style=""font-size:60px;""></div>","null","","","","","","",""
"","","","","","html-mouse-response","399","632941","0.0-399.0","","<div style=""font-size:60px;"">56</div>","{""key"":null}","","26","true","false","even","8",""
"","","","","","html-keyboard-response","400","632993","0.0-400.0","null","<div style=""font-size:60px;""></div>","null","","","","","","",""
"","","","","","html-mouse-response","401","633949","0.0-401.0","","<div style=""font-size:60px;"">54</div>","{""key"":null}","","26","true","false","even","8",""
"","","","","","html-keyboard-response","402","634002","0.0-402.0","null","<div style=""font-size:60px;""></div>","null","","","","","","",""
"","","","","","html-mouse-response","403","634960","0.0-403.0","","<div style=""font-size:60px;"">58</div>","{""key"":null}","","26","true","false","even","8",""
"","","","","","html-keyboard-response","404","635015","0.0-404.0","null","<div style=""font-size:60px;""></div>","null","","","","","","",""
"","","","","","html-mouse-response","405","635971","0.0-405.0","","<div style=""font-size:60px;"">54</div>","{""key"":null}","","26","true","false","even","8",""
"","","","","","html-keyboard-response","406","636027","0.0-406.0","null","<div style=""font-size:60px;""></div>","null","","","","","","",""
"","","","","","html-mouse-response","407","636983","0.0-407.0","","<div style=""font-size:60px;"">58</div>","{""key"":null}","","26","true","false","even","8",""
"","","","","","html-keyboard-response","408","637037","0.0-408.0","null","<div style=""font-size:60px;""></div>","null","","","","","","",""
"","","","","","html-keyboard-response","409","639043","0.0-409.0","null","<div style=""font-size:60px;"">+</div>","null","","","","","","",""
"","","","","","image-keyboard-response","410","645048","0.0-410.0","null","img/urban_eve_new_big_vehicle_1.png","null","true","27","","","","",""
"","","","","","html-keyboard-response","411","647055","0.0-411.0","null","<div style=""font-size:60px;"">+</div>","null","","","","","","",""
"","","","","","html-mouse-response","412","648011","0.0-412.0","","<div style=""font-size:60px;"">47</div>","{""key"":null}","","27","true","true","odd","6",""
"","","","","","html-keyboard-response","413","648064","0.0-413.0","null","<div style=""font-size:60px;""></div>","null","","","","","","",""
"","","","","","html-mouse-response","414","649021","0.0-414.0","","<div style=""font-size:60px;"">45</div>","{""key"":null}","","27","true","false","odd","6",""
"","","","","","html-keyboard-response","415","649073","0.0-415.0","null","<div style=""font-size:60px;""></div>","null","","","","","","",""
"","","","","","html-mouse-response","416","650031","0.0-416.0","","<div style=""font-size:60px;"">47</div>","{""key"":null}","","27","true","false","odd","6",""
"","","","","","html-keyboard-response","417","650086","0.0-417.0","null","<div style=""font-size:60px;""></div>","null","","","","","","",""
"","","","","","html-mouse-response","418","651042","0.0-418.0","","<div style=""font-size:60px;"">45</div>","{""key"":null}","","27","true","false","odd","6",""
"","","","","","html-keyboard-response","419","651099","0.0-419.0","null","<div style=""font-size:60px;""></div>","null","","","","","","",""
"","","","","","html-mouse-response","420","652056","0.0-420.0","","<div style=""font-size:60px;"">43</div>","{""key"":null}","","27","true","false","odd","6",""
"","","","","","html-keyboard-response","421","652112","0.0-421.0","null","<div style=""font-size:60px;""></div>","null","","","","","","",""
"","","","","","html-mouse-response","422","653070","0.0-422.0","","<div style=""font-size:60px;"">47</div>","{""key"":null}","","27","true","false","odd","6",""
"","","","","","html-keyboard-response","423","653126","0.0-423.0","null","<div style=""font-size:60px;""></div>","null","","","","","","",""
"","","","","","html-keyboard-response","424","655133","0.0-424.0","null","<div style=""font-size:60px;"">+</div>","null","","","","","","",""
"","","","","","image-keyboard-response","425","661138","0.0-425.0","null","img/urban_eve_young_white_man_1.png","null","true","28","","","","",""
"","","","","","html-keyboard-response","426","663144","0.0-426.0","null","<div style=""font-size:60px;"">+</div>","null","","","","","","",""
"","","","","","html-mouse-response","427","664098","0.0-427.0","","<div style=""font-size:60px;"">74</div>","{""key"":null}","","28","true","true","even","11",""
"","","","","","html-keyboard-response","428","664154","0.0-428.0","null","<div style=""font-size:60px;""></div>","null","","","","","","",""
"","","","","","html-mouse-response","429","665111","0.0-429.0","","<div style=""font-size:60px;"">72</div>","{""key"":null}","","28","true","false","even","11",""
"","","","","","html-keyboard-response","430","665163","0.0-430.0","null","<div style=""font-size:60px;""></div>","null","","","","","","",""
"","","","","","html-mouse-response","431","666120","0.0-431.0","","<div style=""font-size:60px;"">74</div>","{""key"":null}","","28","true","false","even","11",""
"","","","","","html-keyboard-response","432","666173","0.0-432.0","null","<div style=""font-size:60px;""></div>","null","","","","","","",""
"","","","","","html-mouse-response","433","667130","0.0-433.0","","<div style=""font-size:60px;"">72</div>","{""key"":null}","","28","true","false","even","11",""
"","","","","","html-keyboard-response","434","667184","0.0-434.0","null","<div style=""font-size:60px;""></div>","null","","","","","","",""
"","","","","","html-mouse-response","435","668140","0.0-435.0","","<div style=""font-size:60px;"">76</div>","{""key"":null}","","28","true","false","even","11",""
"","","","","","html-keyboard-response","436","668196","0.0-436.0","null","<div style=""font-size:60px;""></div>","null","","","","","","",""
"","","","","","html-mouse-response","437","669152","0.0-437.0","","<div style=""font-size:60px;"">72</div>","{""key"":null}","","28","true","false","even","11",""
"","","","","","html-keyboard-response","438","669207","0.0-438.0","null","<div style=""font-size:60px;""></div>","null","","","","","","",""
"","","","","","html-keyboard-response","439","671212","0.0-439.0","null","<div style=""font-size:60px;"">+</div>","null","","","","","","",""
"","","","","","image-keyboard-response","440","677217","0.0-440.0","null","img/urban_eve_old_small_vehicle_1.png","null","true","29","","","","",""
"","","","","","html-keyboard-response","441","679225","0.0-441.0","null","<div style=""font-size:60px;"">+</div>","null","","","","","","",""
"","","","","","html-mouse-response","442","680177","0.0-442.0","","<div style=""font-size:60px;"">30</div>","{""key"":null}","","29","true","true","even","4",""
"","","","","","html-keyboard-response","443","680234","0.0-443.0","null","<div style=""font-size:60px;""></div>","null","","","","","","",""
"","","","","","html-mouse-response","444","681191","0.0-444.0","","<div style=""font-size:60px;"">34</div>","{""key"":null}","","29","true","false","even","4",""
"","","","","","html-keyboard-response","445","681244","0.0-445.0","null","<div style=""font-size:60px;""></div>","null","","","","","","",""
"","","","","","html-mouse-response","446","682199","0.0-446.0","","<div style=""font-size:60px;"">30</div>","{""key"":null}","","29","true","false","even","4",""
"","","","","","html-keyboard-response","447","682252","0.0-447.0","null","<div style=""font-size:60px;""></div>","null","","","","","","",""
"","","","","","html-mouse-response","448","683207","0.0-448.0","","<div style=""font-size:60px;"">34</div>","{""key"":null}","","29","true","false","even","4",""
"","","","","","html-keyboard-response","449","683259","0.0-449.0","null","<div style=""font-size:60px;""></div>","null","","","","","","",""
"","","","","","html-mouse-response","450","684216","0.0-450.0","","<div style=""font-size:60px;"">32</div>","{""key"":null}","","29","true","false","even","4",""
"","","","","","html-keyboard-response","451","684271","0.0-451.0","null","<div style=""font-size:60px;""></div>","null","","","","","","",""
"","","","","","html-mouse-response","452","685228","0.0-452.0","","<div style=""font-size:60px;"">30</div>","{""key"":null}","","29","true","false","even","4",""
"","","","","","html-keyboard-response","453","685285","0.0-453.0","null","<div style=""font-size:60px;""></div>","null","","","","","","",""
"","","","","","html-keyboard-response","454","687290","0.0-454.0","null","<div style=""font-size:60px;"">+</div>","null","","","","","","",""
"","","","","","image-keyboard-response","455","693298","0.0-455.0","null","img/urban_eve_old_small_church_1.png","null","true","30","","","","",""
"","","","","","html-keyboard-response","456","695305","0.0-456.0","null","<div style=""font-size:60px;"">+</div>","null","","","","","","",""
"","","","","","html-mouse-response","457","696262","0.0-457.0","","<div style=""font-size:60px;"">19</div>","{""key"":null}","","30","true","true","odd","2",""
"","","","","","html-keyboard-response","458","696314","0.0-458.0","null","<div style=""font-size:60px;""></div>","null","","","","","","",""
"","","","","","html-mouse-response","459","697271","0.0-459.0","","<div style=""font-size:60px;"">23</div>","{""key"":null}","","30","true","false","odd","2",""
"","","","","","html-keyboard-response","460","697324","0.0-460.0","null","<div style=""font-size:60px;""></div>","null","","","","","","",""
"","","","","","html-mouse-response","461","698278","0.0-461.0","","<div style=""font-size:60px;"">21</div>","{""key"":null}","","30","true","false","odd","2",""
"","","","","","html-keyboard-response","462","698331","0.0-462.0","null","<div style=""font-size:60px;""></div>","null","","","","","","",""
"","","","","","html-mouse-response","463","699288","0.0-463.0","","<div style=""font-size:60px;"">19</div>","{""key"":null}","","30","true","false","odd","2",""
"","","","","","html-keyboard-response","464","699342","0.0-464.0","null","<div style=""font-size:60px;""></div>","null","","","","","","",""
"","","","","","html-mouse-response","465","700299","0.0-465.0","","<div style=""font-size:60px;"">21</div>","{""key"":null}","","30","true","false","odd","2",""
"","","","","","html-keyboard-response","466","700355","0.0-466.0","null","<div style=""font-size:60px;""></div>","null","","","","","","",""
"","","","","","html-mouse-response","467","701311","0.0-467.0","","<div style=""font-size:60px;"">23</div>","{""key"":null}","","30","true","false","odd","2",""
"","","","","","html-keyboard-response","468","701368","0.0-468.0","null","<div style=""font-size:60px;""></div>","null","","","","","","",""
"","","","","","html-keyboard-response","469","703371","0.0-469.0","null","<div style=""font-size:60px;"">+</div>","null","","","","","","",""
"","","","","","image-keyboard-response","470","709376","0.0-470.0","null","img/urban_eve_young_black_man_1.png","null","true","31","","","","",""
"","","","","","html-keyboard-response","471","711383","0.0-471.0","null","<div style=""font-size:60px;"">+</div>","null","","","","","","",""
"","","","","","html-mouse-response","472","712338","0.0-472.0","","<div style=""font-size:60px;"">59</div>","{""key"":null}","","31","true","true","odd","8",""
"","","","","","html-keyboard-response","473","712391","0.0-473.0","null","<div style=""font-size:60px;""></div>","null","","","","","","",""
"","","","","","html-mouse-response","474","713348","0.0-474.0","","<div style=""font-size:60px;"">55</div>","{""key"":null}","","31","true","false","odd","8",""
"","","","","","html-keyboard-response","475","713401","0.0-475.0","null","<div style=""font-size:60px;""></div>","null","","","","","","",""
"","","","","","html-mouse-response","476","714358","0.0-476.0","","<div style=""font-size:60px;"">59</div>","{""key"":null}","","31","true","false","odd","8",""
"","","","","","html-keyboard-response","477","714411","0.0-477.0","null","<div style=""font-size:60px;""></div>","null","","","","","","",""
"","","","","","html-mouse-response","478","715368","0.0-478.0","","<div style=""font-size:60px;"">57</div>","{""key"":null}","","31","true","false","odd","8",""
"","","","","","html-keyboard-response","479","715422","0.0-479.0","null","<div style=""font-size:60px;""></div>","null","","","","","","",""
"","","","","","html-mouse-response","480","716380","0.0-480.0","","<div style=""font-size:60px;"">55</div>","{""key"":null}","","31","true","false","odd","8",""
"","","","","","html-keyboard-response","481","716437","0.0-481.0","null","<div style=""font-size:60px;""></div>","null","","","","","","",""
"","","","","","html-mouse-response","482","717392","0.0-482.0","","<div style=""font-size:60px;"">59</div>","{""key"":null}","","31","true","false","odd","8",""
"","","","","","html-keyboard-response","483","717450","0.0-483.0","null","<div style=""font-size:60px;""></div>","null","","","","","","",""
"","","","","","html-keyboard-response","484","719456","0.0-484.0","null","<div style=""font-size:60px;"">+</div>","null","","","","","","",""
"","","","","","image-keyboard-response","485","725461","0.0-485.0","null","img/urban_eve_old_white_woman_1.png","null","true","32","","","","",""
"","","","","","html-keyboard-response","486","727467","0.0-486.0","null","<div style=""font-size:60px;"">+</div>","null","","","","","","",""
"","","","","","html-mouse-response","487","728421","0.0-487.0","","<div style=""font-size:60px;"">51</div>","{""key"":null}","","32","true","true","odd","7",""
"","","","","","html-keyboard-response","488","728476","0.0-488.0","null","<div style=""font-size:60px;""></div>","null","","","","","","",""
"","","","","","html-mouse-response","489","729433","0.0-489.0","","<div style=""font-size:60px;"">53</div>","{""key"":null}","","32","true","false","odd","7",""
"","","","","","html-keyboard-response","490","729484","0.0-490.0","null","<div style=""font-size:60px;""></div>","null","","","","","","",""
"","","","","","html-mouse-response","491","730441","0.0-491.0","","<div style=""font-size:60px;"">49</div>","{""key"":null}","","32","true","false","odd","7",""
"","","","","","html-keyboard-response","492","730494","0.0-492.0","null","<div style=""font-size:60px;""></div>","null","","","","","","",""
"","","","","","html-mouse-response","493","731451","0.0-493.0","","<div style=""font-size:60px;"">53</div>","{""key"":null}","","32","true","false","odd","7",""
"","","","","","html-keyboard-response","494","731505","0.0-494.0","null","<div style=""font-size:60px;""></div>","null","","","","","","",""
"","","","","","html-mouse-response","495","732458","0.0-495.0","","<div style=""font-size:60px;"">49</div>","{""key"":null}","","32","true","false","odd","7",""
"","","","","","html-keyboard-response","496","732513","0.0-496.0","null","<div style=""font-size:60px;""></div>","null","","","","","","",""
"","","","","","html-mouse-response","497","733470","0.0-497.0","","<div style=""font-size:60px;"">51</div>","{""key"":null}","","32","true","false","odd","7",""
"","","","","","html-keyboard-response","498","733527","0.0-498.0","null","<div style=""font-size:60px;""></div>","null","","","","","","",""
"","","","","","html-keyboard-response","499","735530","0.0-499.0","null","<div style=""font-size:60px;"">+</div>","null","","","","","","",""
"","","","","","image-keyboard-response","500","741537","0.0-500.0","null","img/urban_eve_old_black_woman_1.png","null","true","33","","","","",""
"","","","","","html-keyboard-response","501","743544","0.0-501.0","null","<div style=""font-size:60px;"">+</div>","null","","","","","","",""
"","","","","","html-mouse-response","502","744501","0.0-502.0","","<div style=""font-size:60px;"">60</div>","{""key"":null}","","33","true","true","even","9",""
"","","","","","html-keyboard-response","503","744554","0.0-503.0","null","<div style=""font-size:60px;""></div>","null","","","","","","",""
"","","","","","html-mouse-response","504","745511","0.0-504.0","","<div style=""font-size:60px;"">62</div>","{""key"":null}","","33","true","false","even","9",""
"","","","","","html-keyboard-response","505","745564","0.0-505.0","null","<div style=""font-size:60px;""></div>","null","","","","","","",""
"","","","","","html-mouse-response","506","746520","0.0-506.0","","<div style=""font-size:60px;"">60</div>","{""key"":null}","","33","true","false","even","9",""
"","","","","","html-keyboard-response","507","746576","0.0-507.0","null","<div style=""font-size:60px;""></div>","null","","","","","","",""
"","","","","","html-mouse-response","508","747530","0.0-508.0","","<div style=""font-size:60px;"">62</div>","{""key"":null}","","33","true","false","even","9",""
"","","","","","html-keyboard-response","509","747584","0.0-509.0","null","<div style=""font-size:60px;""></div>","null","","","","","","",""
"","","","","","html-mouse-response","510","748538","0.0-510.0","","<div style=""font-size:60px;"">60</div>","{""key"":null}","","33","true","false","even","9",""
"","","","","","html-keyboard-response","511","748594","0.0-511.0","null","<div style=""font-size:60px;""></div>","null","","","","","","",""
"","","","","","html-mouse-response","512","749551","0.0-512.0","","<div style=""font-size:60px;"">64</div>","{""key"":null}","","33","true","false","even","9",""
"","","","","","html-keyboard-response","513","749605","0.0-513.0","null","<div style=""font-size:60px;""></div>","null","","","","","","",""
"","","","","","html-keyboard-response","514","751610","0.0-514.0","null","<div style=""font-size:60px;"">+</div>","null","","","","","","",""
"","","","","","image-keyboard-response","515","757615","0.0-515.0","null","img/urban_eve_new_big_furniture_1.png","null","true","34","","","","",""
"","","","","","html-keyboard-response","516","759622","0.0-516.0","null","<div style=""font-size:60px;"">+</div>","null","","","","","","",""
"","","","","","html-mouse-response","517","760578","0.0-517.0","","<div style=""font-size:60px;"">50</div>","{""key"":null}","","34","true","true","even","7",""
"","","","","","html-keyboard-response","518","760631","0.0-518.0","null","<div style=""font-size:60px;""></div>","null","","","","","","",""
"","","","","","html-mouse-response","519","761587","0.0-519.0","","<div style=""font-size:60px;"">52</div>","{""key"":null}","","34","true","false","even","7",""
"","","","","","html-keyboard-response","520","761639","0.0-520.0","null","<div style=""font-size:60px;""></div>","null","","","","","","",""
"","","","","","html-mouse-response","521","762591","0.0-521.0","","<div style=""font-size:60px;"">48</div>","{""key"":null}","","34","true","false","even","7",""
"","","","","","html-keyboard-response","522","762643","0.0-522.0","null","<div style=""font-size:60px;""></div>","null","","","","","","",""
"","","","","","html-mouse-response","523","763599","0.0-523.0","","<div style=""font-size:60px;"">52</div>","{""key"":null}","","34","true","false","even","7",""
"","","","","","html-keyboard-response","524","763651","0.0-524.0","null","<div style=""font-size:60px;""></div>","null","","","","","","",""
"","","","","","html-mouse-response","525","764609","0.0-525.0","","<div style=""font-size:60px;"">48</div>","{""key"":null}","","34","true","false","even","7",""
"","","","","","html-keyboard-response","526","764662","0.0-526.0","null","<div style=""font-size:60px;""></div>","null","","","","","","",""
"","","","","","html-mouse-response","527","765618","0.0-527.0","","<div style=""font-size:60px;"">50</div>","{""key"":null}","","34","true","false","even","7",""
"","","","","","html-keyboard-response","528","765673","0.0-528.0","null","<div style=""font-size:60px;""></div>","null","","","","","","",""
"","","","","","html-keyboard-response","529","767677","0.0-529.0","null","<div style=""font-size:60px;"">+</div>","null","","","","","","",""
"","","","","","image-keyboard-response","530","773684","0.0-530.0","null","img/urban_eve_new_small_house_1.png","null","true","35","","","","",""
"","","","","","html-keyboard-response","531","775691","0.0-531.0","null","<div style=""font-size:60px;"">+</div>","null","","","","","","",""
"","","","","","html-mouse-response","532","776647","0.0-532.0","","<div style=""font-size:60px;"">71</div>","{""key"":null}","","35","true","true","odd","10",""
"","","","","","html-keyboard-response","533","776699","0.0-533.0","null","<div style=""font-size:60px;""></div>","null","","","","","","",""
"","","","","","html-mouse-response","534","777655","0.0-534.0","","<div style=""font-size:60px;"">67</div>","{""key"":null}","","35","true","false","odd","10",""
"","","","","","html-keyboard-response","535","777709","0.0-535.0","null","<div style=""font-size:60px;""></div>","null","","","","","","",""
"","","","","","html-mouse-response","536","778665","0.0-536.0","","<div style=""font-size:60px;"">71</div>","{""key"":null}","","35","true","false","odd","10",""
"","","","","","html-keyboard-response","537","778718","0.0-537.0","null","<div style=""font-size:60px;""></div>","null","","","","","","",""
"","","","","","html-mouse-response","538","779673","0.0-538.0","","<div style=""font-size:60px;"">69</div>","{""key"":null}","","35","true","false","odd","10",""
"","","","","","html-keyboard-response","539","779730","0.0-539.0","null","<div style=""font-size:60px;""></div>","null","","","","","","",""
"","","","","","html-mouse-response","540","780687","0.0-540.0","","<div style=""font-size:60px;"">67</div>","{""key"":null}","","35","true","false","odd","10",""
"","","","","","html-keyboard-response","541","780743","0.0-541.0","null","<div style=""font-size:60px;""></div>","null","","","","","","",""
"","","","","","html-mouse-response","542","781700","0.0-542.0","","<div style=""font-size:60px;"">71</div>","{""key"":null}","","35","true","false","odd","10",""
"","","","","","html-keyboard-response","543","781753","0.0-543.0","null","<div style=""font-size:60px;""></div>","null","","","","","","",""
"","","","","","html-keyboard-response","544","783759","0.0-544.0","null","<div style=""font-size:60px;"">+</div>","null","","","","","","",""
"","","","","","image-keyboard-response","545","789767","0.0-545.0","null","img/urban_eve_new_small_vehicle_1.png","null","true","36","","","","",""
"","","","","","html-keyboard-response","546","791772","0.0-546.0","null","<div style=""font-size:60px;"">+</div>","null","","","","","","",""
"","","","","","html-mouse-response","547","792728","0.0-547.0","","<div style=""font-size:60px;"">81</div>","{""key"":null}","","36","true","true","odd","12",""
"","","","","","html-keyboard-response","548","792780","0.0-548.0","null","<div style=""font-size:60px;""></div>","null","","","","","","",""
"","","","","","html-mouse-response","549","793735","0.0-549.0","","<div style=""font-size:60px;"">79</div>","{""key"":null}","","36","true","false","odd","12",""
"","","","","","html-keyboard-response","550","793786","0.0-550.0","null","<div style=""font-size:60px;""></div>","null","","","","","","",""
"","","","","","html-mouse-response","551","794743","0.0-551.0","","<div style=""font-size:60px;"">81</div>","{""key"":null}","","36","true","false","odd","12",""
"","","","","","html-keyboard-response","552","794796","0.0-552.0","null","<div style=""font-size:60px;""></div>","null","","","","","","",""
"","","","","","html-mouse-response","553","795753","0.0-553.0","","<div style=""font-size:60px;"">79</div>","{""key"":null}","","36","true","false","odd","12",""
"","","","","","html-keyboard-response","554","795806","0.0-554.0","null","<div style=""font-size:60px;""></div>","null","","","","","","",""
"","","","","","html-mouse-response","555","796762","0.0-555.0","","<div style=""font-size:60px;"">81</div>","{""key"":null}","","36","true","false","odd","12",""
"","","","","","html-keyboard-response","556","796818","0.0-556.0","null","<div style=""font-size:60px;""></div>","null","","","","","","",""
"","","","","","html-mouse-response","557","797774","0.0-557.0","","<div style=""font-size:60px;"">83</div>","{""key"":null}","","36","true","false","odd","12",""
"","","","","","html-keyboard-response","558","797830","0.0-558.0","null","<div style=""font-size:60px;""></div>","null","","","","","","",""
"","","","","","html-keyboard-response","559","799832","0.0-559.0","null","<div style=""font-size:60px;"">+</div>","null","","","","","","",""
"","","","","","image-keyboard-response","560","805840","0.0-560.0","null","img/urban_eve_old_big_vehicle_1.png","null","true","37","","","","",""
"","","","","","html-keyboard-response","561","807843","0.0-561.0","null","<div style=""font-size:60px;"">+</div>","null","","","","","","",""
"","","","","","html-mouse-response","562","808800","0.0-562.0","","<div style=""font-size:60px;"">38</div>","{""key"":null}","","37","true","true","even","5",""
"","","","","","html-keyboard-response","563","808856","0.0-563.0","null","<div style=""font-size:60px;""></div>","null","","","","","","",""
"","","","","","html-mouse-response","564","809811","0.0-564.0","","<div style=""font-size:60px;"">40</div>","{""key"":null}","","37","true","false","even","5",""
"","","","","","html-keyboard-response","565","809864","0.0-565.0","null","<div style=""font-size:60px;""></div>","null","","","","","","",""
"","","","","","html-mouse-response","566","810822","0.0-566.0","","<div style=""font-size:60px;"">36</div>","{""key"":null}","","37","true","false","even","5",""
"","","","","","html-keyboard-response","567","810875","0.0-567.0","null","<div style=""font-size:60px;""></div>","null","","","","","","",""
"","","","","","html-mouse-response","568","811832","0.0-568.0","","<div style=""font-size:60px;"">38</div>","{""key"":null}","","37","true","false","even","5",""
"","","","","","html-keyboard-response","569","811886","0.0-569.0","null","<div style=""font-size:60px;""></div>","null","","","","","","",""
"","","","","","html-mouse-response","570","812843","0.0-570.0","","<div style=""font-size:60px;"">36</div>","{""key"":null}","","37","true","false","even","5",""
"","","","","","html-keyboard-response","571","812899","0.0-571.0","null","<div style=""font-size:60px;""></div>","null","","","","","","",""
"","","","","","html-mouse-response","572","813851","0.0-572.0","","<div style=""font-size:60px;"">38</div>","{""key"":null}","","37","true","false","even","5",""
"","","","","","html-keyboard-response","573","813908","0.0-573.0","null","<div style=""font-size:60px;""></div>","null","","","","","","",""
"","","","","","html-keyboard-response","574","815915","0.0-574.0","null","<div style=""font-size:60px;"">+</div>","null","","","","","","",""
"","","","","","image-keyboard-response","575","821922","0.0-575.0","null","img/urban_eve_old_small_furniture_1.png","null","true","38","","","","",""
"","","","","","html-keyboard-response","576","823930","0.0-576.0","null","<div style=""font-size:60px;"">+</div>","null","","","","","","",""
"","","","","","html-mouse-response","577","824887","0.0-577.0","","<div style=""font-size:60px;"">18</div>","{""key"":null}","","38","true","true","even","2",""
"","","","","","html-keyboard-response","578","824938","0.0-578.0","null","<div style=""font-size:60px;""></div>","null","","","","","","",""
"","","","","","html-mouse-response","579","825896","0.0-579.0","","<div style=""font-size:60px;"">22</div>","{""key"":null}","","38","true","false","even","2",""
"","","","","","html-keyboard-response","580","825949","0.0-580.0","null","<div style=""font-size:60px;""></div>","null","","","","","","",""
"","","","","","html-mouse-response","581","826904","0.0-581.0","","<div style=""font-size:60px;"">18</div>","{""key"":null}","","38","true","false","even","2",""
"","","","","","html-keyboard-response","582","826957","0.0-582.0","null","<div style=""font-size:60px;""></div>","null","","","","","","",""
"","","","","","html-mouse-response","583","827913","0.0-583.0","","<div style=""font-size:60px;"">22</div>","{""key"":null}","","38","true","false","even","2",""
"","","","","","html-keyboard-response","584","827969","0.0-584.0","null","<div style=""font-size:60px;""></div>","null","","","","","","",""
"","","","","","html-mouse-response","585","828925","0.0-585.0","","<div style=""font-size:60px;"">20</div>","{""key"":null}","","38","true","false","even","2",""
"","","","","","html-keyboard-response","586","828981","0.0-586.0","null","<div style=""font-size:60px;""></div>","null","","","","","","",""
"","","","","","html-mouse-response","587","829933","0.0-587.0","","<div style=""font-size:60px;"">18</div>","{""key"":null}","","38","true","false","even","2",""
"","","","","","html-keyboard-response","588","829990","0.0-588.0","null","<div style=""font-size:60px;""></div>","null","","","","","","",""
"","","","","","html-keyboard-response","589","831996","0.0-589.0","null","<div style=""font-size:60px;"">+</div>","null","","","","","","",""
"","","","","","image-keyboard-response","590","838002","0.0-590.0","null","img/urban_eve_old_small_house_1.png","null","true","39","","","","",""
"","","","","","html-keyboard-response","591","840007","0.0-591.0","null","<div style=""font-size:60px;"">+</div>","null","","","","","","",""
"","","","","","html-mouse-response","592","840962","0.0-592.0","","<div style=""font-size:60px;"">29</div>","{""key"":null}","","39","true","true","odd","3",""
"","","","","","html-keyboard-response","593","841016","0.0-593.0","null","<div style=""font-size:60px;""></div>","null","","","","","","",""
"","","","","","html-mouse-response","594","841973","0.0-594.0","","<div style=""font-size:60px;"">25</div>","{""key"":null}","","39","true","false","odd","3",""
"","","","","","html-keyboard-response","595","842027","0.0-595.0","null","<div style=""font-size:60px;""></div>","null","","","","","","",""
"","","","","","html-mouse-response","596","842983","0.0-596.0","","<div style=""font-size:60px;"">29</div>","{""key"":null}","","39","true","false","odd","3",""
"","","","","","html-keyboard-response","597","843036","0.0-597.0","null","<div style=""font-size:60px;""></div>","null","","","","","","",""
"","","","","","html-mouse-response","598","843993","0.0-598.0","","<div style=""font-size:60px;"">27</div>","{""key"":null}","","39","true","false","odd","3",""
"","","","","","html-keyboard-response","599","844047","0.0-599.0","null","<div style=""font-size:60px;""></div>","null","","","","","","",""
"","","","","","html-mouse-response","600","845004","0.0-600.0","","<div style=""font-size:60px;"">29</div>","{""key"":null}","","39","true","false","odd","3",""
"","","","","","html-keyboard-response","601","845061","0.0-601.0","null","<div style=""font-size:60px;""></div>","null","","","","","","",""
"","","","","","html-mouse-response","602","846018","0.0-602.0","","<div style=""font-size:60px;"">27</div>","{""key"":null}","","39","true","false","odd","3",""
"","","","","","html-keyboard-response","603","846070","0.0-603.0","null","<div style=""font-size:60px;""></div>","null","","","","","","",""
"","","","","","html-keyboard-response","604","848075","0.0-604.0","null","<div style=""font-size:60px;"">+</div>","null","","","","","","",""
"","","","","","image-keyboard-response","605","854083","0.0-605.0","null","img/urban_eve_new_big_house_1.png","null","true","40","","","","",""
"","","","","","html-keyboard-response","606","856087","0.0-606.0","null","<div style=""font-size:60px;"">+</div>","null","","","","","","",""
"","","","","","html-mouse-response","607","857044","0.0-607.0","","<div style=""font-size:60px;"">65</div>","{""key"":null}","","40","true","true","odd","9",""
"","","","","","html-keyboard-response","608","857096","0.0-608.0","null","<div style=""font-size:60px;""></div>","null","","","","","","",""
"","","","","","html-mouse-response","609","858053","0.0-609.0","","<div style=""font-size:60px;"">61</div>","{""key"":null}","","40","true","false","odd","9",""
"","","","","","html-keyboard-response","610","858105","0.0-610.0","null","<div style=""font-size:60px;""></div>","null","","","","","","",""
"","","","","","html-mouse-response","611","859061","0.0-611.0","","<div style=""font-size:60px;"">65</div>","{""key"":null}","","40","true","false","odd","9",""
"","","","","","html-keyboard-response","612","859115","0.0-612.0","null","<div style=""font-size:60px;""></div>","null","","","","","","",""
"","","","","","html-mouse-response","613","860071","0.0-613.0","","<div style=""font-size:60px;"">63</div>","{""key"":null}","","40","true","false","odd","9",""
"","","","","","html-keyboard-response","614","860124","0.0-614.0","null","<div style=""font-size:60px;""></div>","null","","","","","","",""
"","","","","","html-mouse-response","615","861081","0.0-615.0","","<div style=""font-size:60px;"">61</div>","{""key"":null}","","40","true","false","odd","9",""
"","","","","","html-keyboard-response","616","861137","0.0-616.0","null","<div style=""font-size:60px;""></div>","null","","","","","","",""
"","","","","","html-mouse-response","617","862094","0.0-617.0","","<div style=""font-size:60px;"">63</div>","{""key"":null}","","40","true","false","odd","9",""
"","","","","","html-keyboard-response","618","862151","0.0-618.0","null","<div style=""font-size:60px;""></div>","null","","","","","","",""
"","","","","","html-keyboard-response","619","864158","0.0-619.0","null","<div style=""font-size:60px;"">+</div>","null","","","","","","",""
"","","","","","image-keyboard-response","620","870161","0.0-620.0","null","img/urban_eve_young_black_woman_1.png","null","true","41","","","","",""
"","","","","","html-keyboard-response","621","872166","0.0-621.0","null","<div style=""font-size:60px;"">+</div>","null","","","","","","",""
"","","","","","html-mouse-response","622","873120","0.0-622.0","","<div style=""font-size:60px;"">78</div>","{""key"":null}","","41","true","true","even","12",""
"","","","","","html-keyboard-response","623","873176","0.0-623.0","null","<div style=""font-size:60px;""></div>","null","","","","","","",""
"","","","","","html-mouse-response","624","874129","0.0-624.0","","<div style=""font-size:60px;"">82</div>","{""key"":null}","","41","true","false","even","12",""
"","","","","","html-keyboard-response","625","874182","0.0-625.0","null","<div style=""font-size:60px;""></div>","null","","","","","","",""
"","","","","","html-mouse-response","626","875137","0.0-626.0","","<div style=""font-size:60px;"">78</div>","{""key"":null}","","41","true","false","even","12",""
"","","","","","html-keyboard-response","627","875189","0.0-627.0","null","<div style=""font-size:60px;""></div>","null","","","","","","",""
"","","","","","html-mouse-response","628","876146","0.0-628.0","","<div style=""font-size:60px;"">80</div>","{""key"":null}","","41","true","false","even","12",""
"","","","","","html-keyboard-response","629","876198","0.0-629.0","null","<div style=""font-size:60px;""></div>","null","","","","","","",""
"","","","","","html-mouse-response","630","877155","0.0-630.0","","<div style=""font-size:60px;"">78</div>","{""key"":null}","","41","true","false","even","12",""
"","","","","","html-keyboard-response","631","877209","0.0-631.0","null","<div style=""font-size:60px;""></div>","null","","","","","","",""
"","","","","","html-mouse-response","632","878164","0.0-632.0","","<div style=""font-size:60px;"">82</div>","{""key"":null}","","41","true","false","even","12",""
"","","","","","html-keyboard-response","633","878219","0.0-633.0","null","<div style=""font-size:60px;""></div>","null","","","","","","",""
"","","","","","html-keyboard-response","634","880223","0.0-634.0","null","<div style=""font-size:60px;"">+</div>","null","","","","","","",""
"","","","","","image-keyboard-response","635","886230","0.0-635.0","null","img/urban_eve_new_big_church_1.png","null","true","42","","","","",""
"","","","","","html-keyboard-response","636","888235","0.0-636.0","null","<div style=""font-size:60px;"">+</div>","null","","","","","","",""
"","","","","","html-mouse-response","637","889190","0.0-637.0","","<div style=""font-size:60px;"">28</div>","{""key"":null}","","42","true","true","even","3",""
"","","","","","html-keyboard-response","638","889243","0.0-638.0","null","<div style=""font-size:60px;""></div>","null","","","","","","",""
"","","","","","html-mouse-response","639","890195","0.0-639.0","","<div style=""font-size:60px;"">26</div>","{""key"":null}","","42","true","false","even","3",""
"","","","","","html-keyboard-response","640","890248","0.0-640.0","null","<div style=""font-size:60px;""></div>","null","","","","","","",""
"","","","","","html-mouse-response","641","891205","0.0-641.0","","<div style=""font-size:60px;"">28</div>","{""key"":null}","","42","true","false","even","3",""
"","","","","","html-keyboard-response","642","891258","0.0-642.0","null","<div style=""font-size:60px;""></div>","null","","","","","","",""
"","","","","","html-mouse-response","643","892215","0.0-643.0","","<div style=""font-size:60px;"">26</div>","{""key"":null}","","42","true","false","even","3",""
"","","","","","html-keyboard-response","644","892270","0.0-644.0","null","<div style=""font-size:60px;""></div>","null","","","","","","",""
"","","","","","html-mouse-response","645","893227","0.0-645.0","","<div style=""font-size:60px;"">24</div>","{""key"":null}","","42","true","false","even","3",""
"","","","","","html-keyboard-response","646","893280","0.0-646.0","null","<div style=""font-size:60px;""></div>","null","","","","","","",""
"","","","","","html-mouse-response","647","894235","0.0-647.0","","<div style=""font-size:60px;"">28</div>","{""key"":null}","","42","true","false","even","3",""
"","","","","","html-keyboard-response","648","894292","0.0-648.0","null","<div style=""font-size:60px;""></div>","null","","","","","","",""
"","","","","","html-keyboard-response","649","896297","0.0-649.0","null","<div style=""font-size:60px;"">+</div>","null","","","","","","",""
"","","","","","image-keyboard-response","650","902304","0.0-650.0","null","img/urban_eve_old_big_church_1.png","null","true","43","","","","",""
"","","","","","html-keyboard-response","651","904311","0.0-651.0","null","<div style=""font-size:60px;"">+</div>","null","","","","","","",""
"","","","","","html-mouse-response","652","905264","0.0-652.0","","<div style=""font-size:60px;"">46</div>","{""key"":null}","","43","true","true","even","6",""
"","","","","","html-keyboard-response","653","905318","0.0-653.0","null","<div style=""font-size:60px;""></div>","null","","","","","","",""
"","","","","","html-mouse-response","654","906272","0.0-654.0","","<div style=""font-size:60px;"">44</div>","{""key"":null}","","43","true","false","even","6",""
"","","","","","html-keyboard-response","655","906325","0.0-655.0","null","<div style=""font-size:60px;""></div>","null","","","","","","",""
"","","","","","html-mouse-response","656","907280","0.0-656.0","","<div style=""font-size:60px;"">42</div>","{""key"":null}","","43","true","false","even","6",""
"","","","","","html-keyboard-response","657","907333","0.0-657.0","null","<div style=""font-size:60px;""></div>","null","","","","","","",""
"","","","","","html-mouse-response","658","908288","0.0-658.0","","<div style=""font-size:60px;"">44</div>","{""key"":null}","","43","true","false","even","6",""
