"success","timeout","failed_images","failed_audio","failed_video","trial_type","trial_index","time_elapsed","internal_node_id","rt","stimulus","response","imageTrial","sequence","nbackTrial","firstTrial","parity","magnitude","gridTrial"
"true","false","[]","[]","[]","preload","0","606","0.0-0.0","","","","","","","","","",""
"","","","","","html-keyboard-response","1","630","0.0-1.0","null","<div style=""font-size:60px;"">+</div>","null","","","","","","",""
"","","","","","image-keyboard-response","2","3638","0.0-2.0","null","img/urban_day_new_big_vehicle_1.png","null","true","0","","","","",""
"","","","","","html-mouse-response","3","4645","0.0-3.0","","<div style=""font-size:60px;"">47</div>","{""key"":""lesser""}","","0","true","true","odd","6",""
"","","","","","html-keyboard-response","4","4699","0.0-4.0","null","<div style=""font-size:60px;""></div>","null","","","","","","",""
"","","","","","html-mouse-response","5","5706","0.0-5.0","","<div style=""font-size:60px;"">45</div>","{""key"":""lesser""}","","0","true","false","odd","6",""
"","","","","","html-keyboard-response","6","5758","0.0-6.0","null","<div style=""font-size:60px;""></div>","null","","","","","","",""
"","","","","","html-mouse-response","7","6764","0.0-7.0","","<div style=""font-size:60px;"">47</div>","{""key"":""greater""}","","0","true","false","odd","6",""
"","","","","","html-keyboard-response","8","6819","0.0-8.0","null","<div style=""font-size:60px;""></div>","null","","","","","","",""
"","","","","","html-mouse-response","9","7823","0.0-9.0","","<div style=""font-size:60px;"">45</div>","{""key"":""lesser""}","","0","true","false","odd","6",""
"","","","","","html-keyboard-response","10","7877","0.0-10.0","null","<div style=""font-size:60px;""></div>","null","","","","","","",""
"","","","","","html-mouse-response","11","8878","0.0-11.0","","<div style=""font-size:60px;"">43</div>","{""key"":""greater""}","","0","true","false","odd","6",""
"","","","","","html-keyboard-response","12","8931","0.0-12.0","null","<div style=""font-size:60px;""></div>","null","","","","","","",""
"","","","","","html-mouse-response","13","9938","0.0-13.0","","<div style=""font-size:60px;"">45</div>","{""key"":""lesser""}","","0","true","false","odd","6",""
"","","","","","html-keyboard-response","14","9990","0.0-14.0","null","<div style=""font-size:60px;""></div>","null","","","","","","",""
"","","","","","html-keyboard-response","15","10014","0.0-15.0","null","<div style=""font-size:60px;"">+</div>","null","","","","","","",""
"","","","","","image-keyboard-response","16","13021","0.0-16.0","null","img/urban_day_old_big_vehicle_1.png","null","true","1","","","","",""
"","","","","","html-mouse-response","17","14024","0.0-17.0","","<div style=""font-size:60px;"">46</div>","{""key"":""lesser""}","","1","true","true","even","6",""
"","","","","","html-keyboard-response","18","14077","0.0-18.0","null","<div style=""font-size:60px;""></div>","null","","","","","","",""
"","","","","","html-mouse-response","19","15083","0.0-19.0","","<div style=""font-size:60px;"">44</div>","{""key"":""greater""}","","1","true","false","even","6",""
"","","","","","html-keyboard-response","20","15139","0.0-20.0","null","<div style=""font-size:60px;""></div>","null","","","","","","",""
"","","","","","html-mouse-response","21","16141","0.0-21.0","","<div style=""font-size:60px;"">42</div>","{""key"":""greater""}","","1","true","false","even","6",""
"","","","","","html-keyboard-response","22","16197","0.0-22.0","null","<div style=""font-size:60px;""></div>","null","","","","","","",""
"","","","","","html-mouse-response","23","17200","0.0-23.0","","<div style=""font-size:60px;"">44</div>","{""key"":""greater""}","","1","true","false","even","6",""
"","","","","","html-keyboard-response","24","17255","0.0-24.0","null","<div style=""font-size:60px;""></div>","null","","","","","","",""
"","","","","","html-mouse-response","25","18257","0.0-25.0","","<div style=""font-size:60px;"">42</div>","{""key"":""lesser""}","","1","true","false","even","6",""
"","","","","","html-keyboard-response","26","18314","0.0-26.0","null","<div style=""font-size:60px;""></div>","null","","","","","","",""
"","","","","","html-mouse-response","27","19320","0.0-27.0","","<div style=""font-size:60px;"">46</div>","{""key"":""lesser""}","","1","true","false","even","6",""
"","","","","","html-keyboard-response","28","19373","0.0-28.0","null","<div style=""font-size:60px;""></div>","null","","","","","","",""
"","","","","","html-keyboard-response","29","19395","0.0-29.0","null","<div style=""font-size:60px;"">+</div>","null","","","","","","",""
"","","","","","image-keyboard-response","30","22399","0.0-30.0","null","img/urban_day_new_small_church_1.png","null","true","2","","","","",""
"","","","","","html-mouse-response","31","23406","0.0-31.0","","<div style=""font-size:60px;"">33</div>","{""key"":""lesser""}","","2","true","true","odd","4",""
"","","","","","html-keyboard-response","32","23462","0.0-32.0","null","<div style=""font-size:60px;""></div>","null","","","","","","",""
"","","","","","html-mouse-response","33","24466","0.0-33.0","","<div style=""font-size:60px;"">31</div>","{""key"":""lesser""}","","2","true","false","odd","4",""
"","","","","","html-keyboard-response","34","24523","0.0-34.0","null","<div style=""font-size:60px;""></div>","null","","","","","","",""
"","","","","","html-mouse-response","35","25529","0.0-35.0","","<div style=""font-size:60px;"">33</div>","{""key"":""greater""}","","2","true","false","odd","4",""
"","","","","","html-keyboard-response","36","25584","0.0-36.0","null","<div style=""font-size:60px;""></div>","null","","","","","","",""
"","","","","","html-mouse-response","37","26588","0.0-37.0","","<div style=""font-size:60px;"">31</div>","{""key"":""lesser""}","","2","true","false","odd","4",""
"","","","","","html-keyboard-response","38","26643","0.0-38.0","null","<div style=""font-size:60px;""></div>","null","","","","","","",""
"","","","","","html-mouse-response","39","27649","0.0-39.0","","<div style=""font-size:60px;"">33</div>","{""key"":""greater""}","","2","true","false","odd","4",""
"","","","","","html-keyboard-response","40","27705","0.0-40.0","null","<div style=""font-size:60px;""></div>","null","","","","","","",""
"","","","","","html-mouse-response","41","28710","0.0-41.0","","<div style=""font-size:60px;"">35</div>","{""key"":""lesser""}","","2","true","false","odd","4",""
"","","","","","html-keyboard-response","42","28766","0.0-42.0","null","<div style=""font-size:60px;""></div>","null","","","","","","",""
"","","","","","html-keyboard-response","43","28790","0.0-43.0","null","<div style=""font-size:60px;"">+</div>","null","","","","","","",""
"","","","","","image-keyboard-response","44","31798","0.0-44.0","null","img/urban_day_old_big_church_1.png","null","true","3","","","","",""
"","","","","","html-mouse-response","45","32804","0.0-45.0","","<div style=""font-size:60px;"">51</div>","{""key"":""lesser""}","","3","true","true","odd","7",""
"","","","","","html-keyboard-response","46","32858","0.0-46.0","null","<div style=""font-size:60px;""></div>","null","","","","","","",""
"","","","","","html-mouse-response","47","33862","0.0-47.0","","<div style=""font-size:60px;"">49</div>","{""key"":""lesser""}","","3","true","false","odd","7",""
"","","","","","html-keyboard-response","48","33916","0.0-48.0","null","<div style=""font-size:60px;""></div>","null","","","","","","",""
"","","","","","html-mouse-response","49","34921","0.0-49.0","","<div style=""font-size:60px;"">53</div>","{""key"":""greater""}","","3","true","false","odd","7",""
"","","","","","html-keyboard-response","50","34974","0.0-50.0","null","<div style=""font-size:60px;""></div>","null","","","","","","",""
"","","","","","html-mouse-response","51","35980","0.0-51.0","","<div style=""font-size:60px;"">49</div>","{""key"":""lesser""}","","3","true","false","odd","7",""
"","","","","","html-keyboard-response","52","36032","0.0-52.0","null","<div style=""font-size:60px;""></div>","null","","","","","","",""
"","","","","","html-mouse-response","53","37034","0.0-53.0","","<div style=""font-size:60px;"">51</div>","{""key"":""greater""}","","3","true","false","odd","7",""
"","","","","","html-keyboard-response","54","37089","0.0-54.0","null","<div style=""font-size:60px;""></div>","null","","","","","","",""
"","","","","","html-mouse-response","55","38093","0.0-55.0","","<div style=""font-size:60px;"">49</div>","{""key"":""lesser""}","","3","true","false","odd","7",""
"","","","","","html-keyboard-response","56","38149","0.0-56.0","null","<div style=""font-size:60px;""></div>","null","","","","","","",""
"","","","","","html-keyboard-response","57","38172","0.0-57.0","null","<div style=""font-size:60px;"">+</div>","null","","","","","","",""
"","","","","","image-keyboard-response","58","41176","0.0-58.0","null","img/urban_day_new_small_house_1.png","null","true","4","","","","",""
"","","","","","html-mouse-response","59","42182","0.0-59.0","","<div style=""font-size:60px;"">48</div>","{""key"":""lesser""}","","4","true","true","even","7",""
"","","","","","html-keyboard-response","60","42238","0.0-60.0","null","<div style=""font-size:60px;""></div>","null","","","","","","",""
"","","","","","html-mouse-response","61","43241","0.0-61.0","","<div style=""font-size:60px;"">50</div>","{""key"":""greater""}","","4","true","false","even","7",""
"","","","","","html-keyboard-response","62","43298","0.0-62.0","null","<div style=""font-size:60px;""></div>","null","","","","","","",""
"","","","","","html-mouse-response","63","44305","0.0-63.0","","<div style=""font-size:60px;"">48</div>","{""key"":""lesser""}","","4","true","false","even","7",""
"","","","","","html-keyboard-response","64","44358","0.0-64.0","null","<div style=""font-size:60px;""></div>","null","","","","","","",""
"","","","","","html-mouse-response","65","45365","0.0-65.0","","<div style=""font-size:60px;"">52</div>","{""key"":""greater""}","","4","true","false","even","7",""
"","","","","","html-keyboard-response","66","45421","0.0-66.0","null","<div style=""font-size:60px;""></div>","null","","","","","","",""
"","","","","","html-mouse-response","67","46428","0.0-67.0","","<div style=""font-size:60px;"">50</div>","{""key"":""lesser""}","","4","true","false","even","7",""
"","","","","","html-keyboard-response","68","46479","0.0-68.0","null","<div style=""font-size:60px;""></div>","null","","","","","","",""
"","","","","","html-mouse-response","69","47483","0.0-69.0","","<div style=""font-size:60px;"">52</div>","{""key"":""greater""}","","4","true","false","even","7",""
"","","","","","html-keyboard-response","70","47539","0.0-70.0","null","<div style=""font-size:60px;""></div>","null","","","","","","",""
"","","","","","html-keyboard-response","71","47561","0.0-71.0","null","<div style=""font-size:60px;"">+</div>","null","","","","","","",""
"","","","","","image-keyboard-response","72","50572","0.0-72.0","null","img/urban_day_old_white_man_1.png","null","true","5","","","","",""
"","","","","","html-mouse-response","73","51574","0.0-73.0","","<div style=""font-size:60px;"">29</div>","{""key"":""lesser""}","","5","true","true","odd","3",""
"","","","","","html-keyboard-response","74","51626","0.0-74.0","null","<div style=""font-size:60px;""></div>","null","","","","","","",""
"","","","","","html-mouse-response","75","52633","0.0-75.0","","<div style=""font-size:60px;"">27</div>","{""key"":""lesser""}","","5","true","false","odd","3",""
"","","","","","html-keyboard-response","76","52689","0.0-76.0","null","<div style=""font-size:60px;""></div>","null","","","","","","",""
"","","","","","html-mouse-response","77","53700","0.0-77.0","","<div style=""font-size:60px;"">29</div>","{""key"":""lesser""}","","5","true","false","odd","3",""
"","","","","","html-keyboard-response","78","53755","0.0-78.0","null","<div style=""font-size:60px;""></div>","null","","","","","","",""
"","","","","","html-mouse-response","79","54762","0.0-79.0","","<div style=""font-size:60px;"">27</div>","{""key"":""greater""}","","5","true","false","odd","3",""
"","","","","","html-keyboard-response","80","54816","0.0-80.0","null","<div style=""font-size:60px;""></div>","null","","","","","","",""
"","","","","","html-mouse-response","81","55822","0.0-81.0","","<div style=""font-size:60px;"">25</div>","{""key"":""greater""}","","5","true","false","odd","3",""
"","","","","","html-keyboard-response","82","55876","0.0-82.0","null","<div style=""font-size:60px;""></div>","null","","","","","","",""
"","","","","","html-mouse-response","83","56883","0.0-83.0","","<div style=""font-size:60px;"">27</div>","{""key"":""lesser""}","","5","true","false","odd","3",""
"","","","","","html-keyboard-response","84","56938","0.0-84.0","null","<div style=""font-size:60px;""></div>","null","","","","","","",""
"","","","","","html-keyboard-response","85","56961","0.0-85.0","null","<div style=""font-size:60px;"">+</div>","null","","","","","","",""
"","","","","","image-keyboard-response","86","59966","0.0-86.0","null","img/urban_day_old_small_house_1.png","null","true","6","","","","",""
"","","","","","html-mouse-response","87","60972","0.0-87.0","","<div style=""font-size:60px;"">20</div>","{""key"":""lesser""}","","6","true","true","even","2",""
"","","","","","html-keyboard-response","88","61025","0.0-88.0","null","<div style=""font-size:60px;""></div>","null","","","","","","",""
"","","","","","html-mouse-response","89","62031","0.0-89.0","","<div style=""font-size:60px;"">22</div>","{""key"":""greater""}","","6","true","false","even","2",""
"","","","","","html-keyboard-response","90","62087","0.0-90.0","null","<div style=""font-size:60px;""></div>","null","","","","","","",""
"","","","","","html-mouse-response","91","63091","0.0-91.0","","<div style=""font-size:60px;"">18</div>","{""key"":""lesser""}","","6","true","false","even","2",""
"","","","","","html-keyboard-response","92","63147","0.0-92.0","null","<div style=""font-size:60px;""></div>","null","","","","","","",""
"","","","","","html-mouse-response","93","64150","0.0-93.0","","<div style=""font-size:60px;"">20</div>","{""key"":""greater""}","","6","true","false","even","2",""
"","","","","","html-keyboard-response","94","64206","0.0-94.0","null","<div style=""font-size:60px;""></div>","null","","","","","","",""
"","","","","","html-mouse-response","95","65208","0.0-95.0","","<div style=""font-size:60px;"">18</div>","{""key"":""lesser""}","","6","true","false","even","2",""
"","","","","","html-keyboard-response","96","65262","0.0-96.0","null","<div style=""font-size:60px;""></div>","null","","","","","","",""
"","","","","","html-mouse-response","97","66266","0.0-97.0","","<div style=""font-size:60px;"">20</div>","{""key"":""greater""}","","6","true","false","even","2",""
"","","","","","html-keyboard-response","98","66323","0.0-98.0","null","<div style=""font-size:60px;""></div>","null","","","","","","",""
"","","","","","html-keyboard-response","99","66346","0.0-99.0","null","<div style=""font-size:60px;"">+</div>","null","","","","","","",""
"","","","","","image-keyboard-response","100","69354","0.0-100.0","null","img/urban_day_old_small_vehicle_1.png","null","true","7","","","","",""
"","","","","","html-mouse-response","101","70358","0.0-101.0","","<div style=""font-size:60px;"">60</div>","{""key"":""lesser""}","","7","true","true","even","9",""
"","","","","","html-keyboard-response","102","70415","0.0-102.0","null","<div style=""font-size:60px;""></div>","null","","","","","","",""
"","","","","","html-mouse-response","103","71421","0.0-103.0","","<div style=""font-size:60px;"">62</div>","{""key"":""greater""}","","7","true","false","even","9",""
"","","","","","html-keyboard-response","104","71473","0.0-104.0","null","<div style=""font-size:60px;""></div>","null","","","","","","",""
"","","","","","html-mouse-response","105","72479","0.0-105.0","","<div style=""font-size:60px;"">60</div>","{""key"":""lesser""}","","7","true","false","even","9",""
"","","","","","html-keyboard-response","106","72533","0.0-106.0","null","<div style=""font-size:60px;""></div>","null","","","","","","",""
"","","","","","html-mouse-response","107","73539","0.0-107.0","","<div style=""font-size:60px;"">64</div>","{""key"":""greater""}","","7","true","false","even","9",""
"","","","","","html-keyboard-response","108","73595","0.0-108.0","null","<div style=""font-size:60px;""></div>","null","","","","","","",""
"","","","","","html-mouse-response","109","74599","0.0-109.0","","<div style=""font-size:60px;"">60</div>","{""key"":""lesser""}","","7","true","false","even","9",""
"","","","","","html-keyboard-response","110","74655","0.0-110.0","null","<div style=""font-size:60px;""></div>","null","","","","","","",""
"","","","","","html-mouse-response","111","75661","0.0-111.0","","<div style=""font-size:60px;"">62</div>","{""key"":""greater""}","","7","true","false","even","9",""
"","","","","","html-keyboard-response","112","75716","0.0-112.0","null","<div style=""font-size:60px;""></div>","null","","","","","","",""
"","","","","","html-keyboard-response","113","75740","0.0-113.0","null","<div style=""font-size:60px;"">+</div>","null","","","","","","",""
"","","","","","image-keyboard-response","114","78744","0.0-114.0","null","img/urban_day_new_big_house_1.png","null","true","8","","","","",""
"","","","","","html-mouse-response","115","79749","0.0-115.0","","<div style=""font-size:60px;"">82</div>","{""key"":""greater""}","","8","true","true","even","12",""
"","","","","","html-keyboard-response","116","79801","0.0-116.0","null","<div style=""font-size:60px;""></div>","null","","","","","","",""
"","","","","","html-mouse-response","117","80807","0.0-117.0","","<div style=""font-size:60px;"">80</div>","{""key"":""lesser""}","","8","true","false","even","12",""
"","","","","","html-keyboard-response","118","80863","0.0-118.0","null","<div style=""font-size:60px;""></div>","null","","","","","","",""
"","","","","","html-mouse-response","119","81866","0.0-119.0","","<div style=""font-size:60px;"">82</div>","{""key"":""greater""}","","8","true","false","even","12",""
"","","","","","html-keyboard-response","120","81922","0.0-120.0","null","<div style=""font-size:60px;""></div>","null","","","","","","",""
"","","","","","html-mouse-response","121","82928","0.0-121.0","","<div style=""font-size:60px;"">78</div>","{""key"":""lesser""}","","8","true","false","even","12",""
"","","","","","html-keyboard-response","122","82979","0.0-122.0","null","<div style=""font-size:60px;""></div>","null","","","","","","",""
"","","","","","html-mouse-response","123","83983","0.0-123.0","","<div style=""font-size:60px;"">82</div>","{""key"":""greater""}","","8","true","false","even","12",""
"","","","","","html-keyboard-response","124","84036","0.0-124.0","null","<div style=""font-size:60px;""></div>","null","","","","","","",""
"","","","","","html-mouse-response","125","85042","0.0-125.0","","<div style=""font-size:60px;"">80</div>","{""key"":""lesser""}","","8","true","false","even","12",""
"","","","","","html-keyboard-response","126","85099","0.0-126.0","null","<div style=""font-size:60px;""></div>","null","","","","","","",""
"","","","","","html-keyboard-response","127","85120","0.0-127.0","null","<div style=""font-size:60px;"">+</div>","null","","","","","","",""
"","","","","","image-keyboard-response","128","88124","0.0-128.0","null","img/urban_day_young_white_man_1.png","null","true","9","","","","",""
"","","","","","html-mouse-response","129","89131","0.0-129.0","","<div style=""font-size:60px;"">69</div>","{""key"":""lesser""}","","9","true","true","odd","10",""
"","","","","","html-keyboard-response","130","89185","0.0-130.0","null","<div style=""font-size:60px;""></div>","null","","","","","","",""
"","","","","","html-mouse-response","131","90190","0.0-131.0","","<div style=""font-size:60px;"">67</div>","{""key"":""lesser""}","","9","true","false","odd","10",""
"","","","","","html-keyboard-response","132","90244","0.0-132.0","null","<div style=""font-size:60px;""></div>","null","","","","","","",""
"","","","","","html-mouse-response","133","91250","0.0-133.0","","<div style=""font-size:60px;"">69</div>","{""key"":""greater""}","","9","true","false","odd","10",""
"","","","","","html-keyboard-response","134","91305","0.0-134.0","null","<div style=""font-size:60px;""></div>","null","","","","","","",""
"","","","","","html-mouse-response","135","92311","0.0-135.0","","<div style=""font-size:60px;"">67</div>","{""key"":""lesser""}","","9","true","false","odd","10",""
"","","","","","html-keyboard-response","136","92366","0.0-136.0","null","<div style=""font-size:60px;""></div>","null","","","","","","",""
"","","","","","html-mouse-response","137","93372","0.0-137.0","","<div style=""font-size:60px;"">69</div>","{""key"":""greater""}","","9","true","false","odd","10",""
"","","","","","html-keyboard-response","138","93424","0.0-138.0","null","<div style=""font-size:60px;""></div>","null","","","","","","",""
"","","","","","html-mouse-response","139","94429","0.0-139.0","","<div style=""font-size:60px;"">71</div>","{""key"":""lesser""}","","9","true","false","odd","10",""
"","","","","","html-keyboard-response","140","94482","0.0-140.0","null","<div style=""font-size:60px;""></div>","null","","","","","","",""
"","","","","","html-keyboard-response","141","94506","0.0-141.0","null","<div style=""font-size:60px;"">+</div>","null","","","","","","",""
"","","","","","image-keyboard-response","142","97520","0.0-142.0","null","img/urban_day_new_big_furniture_1.png","null","true","10","","","","",""
"","","","","","html-mouse-response","143","98524","0.0-143.0","","<div style=""font-size:60px;"">68</div>","{""key"":""lesser""}","","10","true","true","even","10",""
"","","","","","html-keyboard-response","144","98580","0.0-144.0","null","<div style=""font-size:60px;""></div>","null","","","","","","",""
"","","","","","html-mouse-response","145","99584","0.0-145.0","","<div style=""font-size:60px;"">70</div>","{""key"":""lesser""}","","10","true","false","even","10",""
"","","","","","html-keyboard-response","146","99640","0.0-146.0","null","<div style=""font-size:60px;""></div>","null","","","","","","",""
"","","","","","html-mouse-response","147","100644","0.0-147.0","","<div style=""font-size:60px;"">68</div>","{""key"":""lesser""}","","10","true","false","even","10",""
"","","","","","html-keyboard-response","148","100697","0.0-148.0","null","<div style=""font-size:60px;""></div>","null","","","","","","",""
"","","","","","html-mouse-response","149","101700","0.0-149.0","","<div style=""font-size:60px;"">66</div>","{""key"":""lesser""}","","10","true","false","even","10",""
"","","","","","html-keyboard-response","150","101755","0.0-150.0","null","<div style=""font-size:60px;""></div>","null","","","","","","",""
"","","","","","html-mouse-response","151","102758","0.0-151.0","","<div style=""font-size:60px;"">68</div>","{""key"":""lesser""}","","10","true","false","even","10",""
"","","","","","html-keyboard-response","152","102811","0.0-152.0","null","<div style=""font-size:60px;""></div>","null","","","","","","",""
"","","","","","html-mouse-response","153","103817","0.0-153.0","","<div style=""font-size:60px;"">70</div>","{""key"":""lesser""}","","10","true","false","even","10",""
"","","","","","html-keyboard-response","154","103875","0.0-154.0","null","<div style=""font-size:60px;""></div>","null","","","","","","",""
"","","","","","html-keyboard-response","155","103900","0.0-155.0","null","<div style=""font-size:60px;"">+</div>","null","","","","","","",""
"","","","","","image-keyboard-response","156","106907","0.0-156.0","null","img/urban_day_old_big_house_1.png","null","true","11","","","","",""
"","","","","","html-mouse-response","157","107912","0.0-157.0","","<div style=""font-size:60px;"">13</div>","{""key"":""lesser""}","","11","true","true","odd","1",""
"","","","","","html-keyboard-response","158","107967","0.0-158.0","null","<div style=""font-size:60px;""></div>","null","","","","","","",""
"","","","","","html-mouse-response","159","108973","0.0-159.0","","<div style=""font-size:60px;"">15</div>","{""key"":""lesser""}","","11","true","false","odd","1",""
"","","","","","html-keyboard-response","160","109027","0.0-160.0","null","<div style=""font-size:60px;""></div>","null","","","","","","",""
"","","","","","html-mouse-response","161","110034","0.0-161.0","","<div style=""font-size:60px;"">17</div>","{""key"":""lesser""}","","11","true","false","odd","1",""
"","","","","","html-keyboard-response","162","110090","0.0-162.0","null","<div style=""font-size:60px;""></div>","null","","","","","","",""
"","","","","","html-mouse-response","163","111096","0.0-163.0","","<div style=""font-size:60px;"">15</div>","{""key"":""lesser""}","","11","true","false","odd","1",""
"","","","","","html-keyboard-response","164","111149","0.0-164.0","null","<div style=""font-size:60px;""></div>","null","","","","","","",""
"","","","","","html-mouse-response","165","112154","0.0-165.0","","<div style=""font-size:60px;"">17</div>","{""key"":""greater""}","","11","true","false","odd","1",""
"","","","","","html-keyboard-response","166","112211","0.0-166.0","null","<div style=""font-size:60px;""></div>","null","","","","","","",""
"","","","","","html-mouse-response","167","113217","0.0-167.0","","<div style=""font-size:60px;"">13</div>","{""key"":""lesser""}","","11","true","false","odd","1",""
"","","","","","html-keyboard-response","168","113269","0.0-168.0","null","<div style=""font-size:60px;""></div>","null","","","","","","",""
"","","","","","html-keyboard-response","169","113295","0.0-169.0","null","<div style=""font-size:60px;"">+</div>","null","","","","","","",""
"","","","","","image-keyboard-response","170","116301","0.0-170.0","null","img/urban_day_new_big_church_1.png","null","true","12","","","","",""
"","","","","","html-mouse-response","171","117307","0.0-171.0","","<div style=""font-size:60px;"">16</div>","{""key"":""lesser""}","","12","true","true","even","1",""
"","","","","","html-keyboard-response","172","117359","0.0-172.0","null","<div style=""font-size:60px;""></div>","null","","","","","","",""
"","","","","","html-mouse-response","173","118366","0.0-173.0","","<div style=""font-size:60px;"">14</div>","{""key"":""lesser""}","","12","true","false","even","1",""
"","","","","","html-keyboard-response","174","118422","0.0-174.0","null","<div style=""font-size:60px;""></div>","null","","","","","","",""
"","","","","","html-mouse-response","175","119424","0.0-175.0","","<div style=""font-size:60px;"">16</div>","{""key"":""greater""}","","12","true","false","even","1",""
"","","","","","html-keyboard-response","176","119480","0.0-176.0","null","<div style=""font-size:60px;""></div>","null","","","","","","",""
"","","","","","html-mouse-response","177","120484","0.0-177.0","","<div style=""font-size:60px;"">12</div>","{""key"":""lesser""}","","12","true","false","even","1",""
"","","","","","html-keyboard-response","178","120540","0.0-178.0","null","<div style=""font-size:60px;""></div>","null","","","","","","",""
"","","","","","html-mouse-response","179","121546","0.0-179.0","","<div style=""font-size:60px;"">16</div>","{""key"":""greater""}","","12","true","false","even","1",""
"","","","","","html-keyboard-response","180","121602","0.0-180.0","null","<div style=""font-size:60px;""></div>","null","","","","","","",""
"","","","","","html-mouse-response","181","122608","0.0-181.0","","<div style=""font-size:60px;"">14</div>","{""key"":""lesser""}","","12","true","false","even","1",""
"","","","","","html-keyboard-response","182","122664","0.0-182.0","null","<div style=""font-size:60px;""></div>","null","","","","","","",""
"","","","","","html-keyboard-response","183","122687","0.0-183.0","null","<div style=""font-size:60px;"">+</div>","null","","","","","","",""
"","","","","","image-keyboard-response","184","125695","0.0-184.0","null","img/urban_day_old_small_church_1.png","null","true","13","","","","",""
"","","","","","html-mouse-response","185","126700","0.0-185.0","","<div style=""font-size:60px;"">40</div>","{""key"":""lesser""}","","13","true","true","even","5",""
"","","","","","html-keyboard-response","186","126756","0.0-186.0","null","<div style=""font-size:60px;""></div>","null","","","","","","",""
"","","","","","html-mouse-response","187","127759","0.0-187.0","","<div style=""font-size:60px;"">38</div>","{""key"":""lesser""}","","13","true","false","even","5",""
"","","","","","html-keyboard-response","188","127860","0.0-188.0","null","<div style=""font-size:60px;""></div>","null","","","","","","",""
"","","","","","html-mouse-response","189","128866","0.0-189.0","","<div style=""font-size:60px;"">36</div>","{""key"":""lesser""}","","13","true","false","even","5",""
"","","","","","html-keyboard-response","190","128919","0.0-190.0","null","<div style=""font-size:60px;""></div>","null","","","","","","",""
"","","","","","html-mouse-response","191","129926","0.0-191.0","","<div style=""font-size:60px;"">38</div>","{""key"":""greater""}","","13","true","false","even","5",""
"","","","","","html-keyboard-response","192","129980","0.0-192.0","null","<div style=""font-size:60px;""></div>","null","","","","","","",""
"","","","","","html-mouse-response","193","130983","0.0-193.0","","<div style=""font-size:60px;"">40</div>","{""key"":""greater""}","","13","true","false","even","5",""
"","","","","","html-keyboard-response","194","131039","0.0-194.0","null","<div style=""font-size:60px;""></div>","null","","","","","","",""
"","","","","","html-mouse-response","195","132042","0.0-195.0","","<div style=""font-size:60px;"">38</div>","{""key"":""lesser""}","","13","true","false","even","5",""
"","","","","","html-keyboard-response","196","132097","0.0-196.0","null","<div style=""font-size:60px;""></div>","null","","","","","","",""
"","","","","","html-keyboard-response","197","132123","0.0-197.0","null","<div style=""font-size:60px;"">+</div>","null","","","","","","",""
"","","","","","image-keyboard-response","198","135131","0.0-198.0","null","img/urban_day_young_black_man_1.png","null","true","14","","","","",""
"","","","","","html-mouse-response","199","136134","0.0-199.0","","<div style=""font-size:60px;"">72</div>","{""key"":""lesser""}","","14","true","true","even","11",""
"","","","","","html-keyboard-response","200","136185","0.0-200.0","null","<div style=""font-size:60px;""></div>","null","","","","","","",""
"","","","","","html-mouse-response","201","137191","0.0-201.0","","<div style=""font-size:60px;"">74</div>","{""key"":""greater""}","","14","true","false","even","11",""
"","","","","","html-keyboard-response","202","137244","0.0-202.0","null","<div style=""font-size:60px;""></div>","null","","","","","","",""
"","","","","","html-mouse-response","203","138248","0.0-203.0","","<div style=""font-size:60px;"">76</div>","{""key"":""lesser""}","","14","true","false","even","11",""
"","","","","","html-keyboard-response","204","138303","0.0-204.0","null","<div style=""font-size:60px;""></div>","null","","","","","","",""
"","","","","","html-mouse-response","205","139305","0.0-205.0","","<div style=""font-size:60px;"">72</div>","{""key"":""lesser""}","","14","true","false","even","11",""
"","","","","","html-keyboard-response","206","139359","0.0-206.0","null","<div style=""font-size:60px;""></div>","null","","","","","","",""
"","","","","","html-mouse-response","207","140364","0.0-207.0","","<div style=""font-size:60px;"">74</div>","{""key"":""lesser""}","","14","true","false","even","11",""
"","","","","","html-keyboard-response","208","140419","0.0-208.0","null","<div style=""font-size:60px;""></div>","null","","","","","","",""
"","","","","","html-mouse-response","209","141424","0.0-209.0","","<div style=""font-size:60px;"">72</div>","{""key"":""lesser""}","","14","true","false","even","11",""
"","","","","","html-keyboard-response","210","141476","0.0-210.0","null","<div style=""font-size:60px;""></div>","null","","","","","","",""
"","","","","","html-keyboard-response","211","141499","0.0-211.0","null","<div style=""font-size:60px;"">+</div>","null","","","","","","",""
"","","","","","image-keyboard-response","212","144502","0.0-212.0","null","img/urban_day_new_small_vehicle_1.png","null","true","15","","","","",""
"","","","","","html-mouse-response","213","145510","0.0-213.0","","<div style=""font-size:60px;"">54</div>","{""key"":""lesser""}","","15","true","true","even","8",""
"","","","","","html-keyboard-response","214","145566","0.0-214.0","null","<div style=""font-size:60px;""></div>","null","","","","","","",""
"","","","","","html-mouse-response","215","146569","0.0-215.0","","<div style=""font-size:60px;"">58</div>","{""key"":""lesser""}","","15","true","false","even","8",""
"","","","","","html-keyboard-response","216","146623","0.0-216.0","null","<div style=""font-size:60px;""></div>","null","","","","","","",""
"","","","","","html-mouse-response","217","147625","0.0-217.0","","<div style=""font-size:60px;"">54</div>","{""key"":""lesser""}","","15","true","false","even","8",""
"","","","","","html-keyboard-response","218","147676","0.0-218.0","null","<div style=""font-size:60px;""></div>","null","","","","","","",""
"","","","","","html-mouse-response","219","148681","0.0-219.0","","<div style=""font-size:60px;"">58</div>","{""key"":""greater""}","","15","true","false","even","8",""
"","","","","","html-keyboard-response","220","148733","0.0-220.0","null","<div style=""font-size:60px;""></div>","null","","","","","","",""
"","","","","","html-mouse-response","221","149734","0.0-221.0","","<div style=""font-size:60px;"">56</div>","{""key"":""lesser""}","","15","true","false","even","8",""
"","","","","","html-keyboard-response","222","149791","0.0-222.0","null","<div style=""font-size:60px;""></div>","null","","","","","","",""
"","","","","","html-mouse-response","223","150796","0.0-223.0","","<div style=""font-size:60px;"">58</div>","{""key"":""greater""}","","15","true","false","even","8",""
"","","","","","html-keyboard-response","224","150850","0.0-224.0","null","<div style=""font-size:60px;""></div>","null","","","","","","",""
"","","","","","html-keyboard-response","225","150874","0.0-225.0","null","<div style=""font-size:60px;"">+</div>","null","","","","","","",""
"","","","","","image-keyboard-response","226","153878","0.0-226.0","null","img/urban_day_young_black_woman_1.png","null","true","16","","","","",""
"","","","","","html-mouse-response","227","154884","0.0-227.0","","<div style=""font-size:60px;"">61</div>","{""key"":""lesser""}","","16","true","true","odd","9",""
"","","","","","html-keyboard-response","228","154941","0.0-228.0","null","<div style=""font-size:60px;""></div>","null","","","","","","",""
"","","","","","html-mouse-response","229","155945","0.0-229.0","","<div style=""font-size:60px;"">65</div>","{""key"":""greater""}","","16","true","false","odd","9",""
"","","","","","html-keyboard-response","230","156001","0.0-230.0","null","<div style=""font-size:60px;""></div>","null","","","","","","",""
"","","","","","html-mouse-response","231","157007","0.0-231.0","","<div style=""font-size:60px;"">63</div>","{""key"":""lesser""}","","16","true","false","odd","9",""
"","","","","","html-keyboard-response","232","157060","0.0-232.0","null","<div style=""font-size:60px;""></div>","null","","","","","","",""
"","","","","","html-mouse-response","233","158066","0.0-233.0","","<div style=""font-size:60px;"">61</div>","{""key"":""lesser""}","","16","true","false","odd","9",""
"","","","","","html-keyboard-response","234","158118","0.0-234.0","null","<div style=""font-size:60px;""></div>","null","","","","","","",""
"","","","","","html-mouse-response","235","159122","0.0-235.0","","<div style=""font-size:60px;"">65</div>","{""key"":""greater""}","","16","true","false","odd","9",""
"","","","","","html-keyboard-response","236","159178","0.0-236.0","null","<div style=""font-size:60px;""></div>","null","","","","","","",""
"","","","","","html-mouse-response","237","160184","0.0-237.0","","<div style=""font-size:60px;"">61</div>","{""key"":""lesser""}","","16","true","false","odd","9",""
"","","","","","html-keyboard-response","238","160236","0.0-238.0","null","<div style=""font-size:60px;""></div>","null","","","","","","",""
"","","","","","html-keyboard-response","239","160263","0.0-239.0","null","<div style=""font-size:60px;"">+</div>","null","","","","","","",""
"","","","","","image-keyboard-response","240","163268","0.0-240.0","null","img/urban_day_new_small_furniture_1.png","null","true","17","","","","",""
"","","","","","html-mouse-response","241","164273","0.0-241.0","","<div style=""font-size:60px;"">28</div>","{""key"":""lesser""}","","17","true","true","even","3",""
"","","","","","html-keyboard-response","242","164325","0.0-242.0","null","<div style=""font-size:60px;""></div>","null","","","","","","",""
"","","","","","html-mouse-response","243","165327","0.0-243.0","","<div style=""font-size:60px;"">24</div>","{""key"":""greater""}","","17","true","false","even","3",""
"","","","","","html-keyboard-response","244","165383","0.0-244.0","null","<div style=""font-size:60px;""></div>","null","","","","","","",""
"","","","","","html-mouse-response","245","166390","0.0-245.0","","<div style=""font-size:60px;"">28</div>","{""key"":""lesser""}","","17","true","false","even","3",""
"","","","","","html-keyboard-response","246","166446","0.0-246.0","null","<div style=""font-size:60px;""></div>","null","","","","","","",""
"","","","","","html-mouse-response","247","167451","0.0-247.0","","<div style=""font-size:60px;"">24</div>","{""key"":""greater""}","","17","true","false","even","3",""
"","","","","","html-keyboard-response","248","167507","0.0-248.0","null","<div style=""font-size:60px;""></div>","null","","","","","","",""
"","","","","","html-mouse-response","249","168513","0.0-249.0","","<div style=""font-size:60px;"">28</div>","{""key"":""greater""}","","17","true","false","even","3",""
"","","","","","html-keyboard-response","250","168567","0.0-250.0","null","<div style=""font-size:60px;""></div>","null","","","","","","",""
"","","","","","html-mouse-response","251","169574","0.0-251.0","","<div style=""font-size:60px;"">24</div>","{""key"":""lesser""}","","17","true","false","even","3",""
"","","","","","html-keyboard-response","252","169630","0.0-252.0","null","<div style=""font-size:60px;""></div>","null","","","","","","",""
"","","","","","html-keyboard-response","253","169652","0.0-253.0","null","<div style=""font-size:60px;"">+</div>","null","","","","","","",""
"","","","","","image-keyboard-response","254","172659","0.0-254.0","null","img/urban_day_old_big_furniture_1.png","null","true","18","","","","",""
"","","","","","html-mouse-response","255","173665","0.0-255.0","","<div style=""font-size:60px;"">32</div>","{""key"":""lesser""}","","18","true","true","even","4",""
"","","","","","html-keyboard-response","256","173717","0.0-256.0","null","<div style=""font-size:60px;""></div>","null","","","","","","",""
"","","","","","html-mouse-response","257","174723","0.0-257.0","","<div style=""font-size:60px;"">30</div>","{""key"":""lesser""}","","18","true","false","even","4",""
"","","","","","html-keyboard-response","258","174779","0.0-258.0","null","<div style=""font-size:60px;""></div>","null","","","","","","",""
"","","","","","html-mouse-response","259","175783","0.0-259.0","","<div style=""font-size:60px;"">34</div>","{""key"":""greater""}","","18","true","false","even","4",""
"","","","","","html-keyboard-response","260","175834","0.0-260.0","null","<div style=""font-size:60px;""></div>","null","","","","","","",""
"","","","","","html-mouse-response","261","176841","0.0-261.0","","<div style=""font-size:60px;"">30</div>","{""key"":""lesser""}","","18","true","false","even","4",""
"","","","","","html-keyboard-response","262","176897","0.0-262.0","null","<div style=""font-size:60px;""></div>","null","","","","","","",""
"","","","","","html-mouse-response","263","177900","0.0-263.0","","<div style=""font-size:60px;"">32</div>","{""key"":""lesser""}","","18","true","false","even","4",""
"","","","","","html-keyboard-response","264","177951","0.0-264.0","null","<div style=""font-size:60px;""></div>","null","","","","","","",""
"","","","","","html-mouse-response","265","178952","0.0-265.0","","<div style=""font-size:60px;"">30</div>","{""key"":""lesser""}","","18","true","false","even","4",""
"","","","","","html-keyboard-response","266","179005","0.0-266.0","null","<div style=""font-size:60px;""></div>","null","","","","","","",""
"","","","","","html-keyboard-response","267","179028","0.0-267.0","null","<div style=""font-size:60px;"">+</div>","null","","","","","","",""
"","","","","","image-keyboard-response","268","182034","0.0-268.0","null","img/urban_day_old_black_man_1.png","null","true","19","","","","",""
"","","","","","html-mouse-response","269","183036","0.0-269.0","","<div style=""font-size:60px;"">21</div>","{""key"":""lesser""}","","19","true","true","odd","2",""
"","","","","","html-keyboard-response","270","183092","0.0-270.0","null","<div style=""font-size:60px;""></div>","null","","","","","","",""
"","","","","","html-mouse-response","271","184095","0.0-271.0","","<div style=""font-size:60px;"">23</div>","{""key"":""greater""}","","19","true","false","odd","2",""
"","","","","","html-keyboard-response","272","184148","0.0-272.0","null","<div style=""font-size:60px;""></div>","null","","","","","","",""
"","","","","","html-mouse-response","273","185150","0.0-273.0","","<div style=""font-size:60px;"">19</div>","{""key"":""lesser""}","","19","true","false","odd","2",""
"","","","","","html-keyboard-response","274","185206","0.0-274.0","null","<div style=""font-size:60px;""></div>","null","","","","","","",""
"","","","","","html-mouse-response","275","186212","0.0-275.0","","<div style=""font-size:60px;"">23</div>","{""key"":""greater""}","","19","true","false","odd","2",""
"","","","","","html-keyboard-response","276","186267","0.0-276.0","null","<div style=""font-size:60px;""></div>","null","","","","","","",""
"","","","","","html-mouse-response","277","187273","0.0-277.0","","<div style=""font-size:60px;"">19</div>","{""key"":""lesser""}","","19","true","false","odd","2",""
"","","","","","html-keyboard-response","278","187327","0.0-278.0","null","<div style=""font-size:60px;""></div>","null","","","","","","",""
"","","","","","html-mouse-response","279","188329","0.0-279.0","","<div style=""font-size:60px;"">21</div>","{""key"":""greater""}","","19","true","false","odd","2",""
"","","","","","html-keyboard-response","280","188384","0.0-280.0","null","<div style=""font-size:60px;""></div>","null","","","","","","",""
"","","","","","html-keyboard-response","281","188405","0.0-281.0","null","<div style=""font-size:60px;"">+</div>","null","","","","","","",""
"","","","","","image-keyboard-response","282","191407","0.0-282.0","null","img/urban_day_old_black_woman_1.png","null","true","20","","","","",""
"","","","","","html-mouse-response","283","192413","0.0-283.0","","<div style=""font-size:60px;"">75</div>","{""key"":""lesser""}","","20","true","true","odd","11",""
"","","","","","html-keyboard-response","284","192468","0.0-284.0","null","<div style=""font-size:60px;""></div>","null","","","","","","",""
"","","","","","html-mouse-response","285","193473","0.0-285.0","","<div style=""font-size:60px;"">77</div>","{""key"":""lesser""}","","20","true","false","odd","11",""
"","","","","","html-keyboard-response","286","193527","0.0-286.0","null","<div style=""font-size:60px;""></div>","null","","","","","","",""
"","","","","","html-mouse-response","287","194534","0.0-287.0","","<div style=""font-size:60px;"">73</div>","{""key"":""lesser""}","","20","true","false","odd","11",""
"","","","","","html-keyboard-response","288","194589","0.0-288.0","null","<div style=""font-size:60px;""></div>","null","","","","","","",""
"","","","","","html-mouse-response","289","195592","0.0-289.0","","<div style=""font-size:60px;"">77</div>","{""key"":""lesser""}","","20","true","false","odd","11",""
"","","","","","html-keyboard-response","290","195648","0.0-290.0","null","<div style=""font-size:60px;""></div>","null","","","","","","",""
"","","","","","html-mouse-response","291","196651","0.0-291.0","","<div style=""font-size:60px;"">75</div>","{""key"":""lesser""}","","20","true","false","odd","11",""
"","","","","","html-keyboard-response","292","196704","0.0-292.0","null","<div style=""font-size:60px;""></div>","null","","","","","","",""
"","","","","","html-mouse-response","293","197709","0.0-293.0","","<div style=""font-size:60px;"">77</div>","{""key"":""lesser""}","","20","true","false","odd","11",""
"","","","","","html-keyboard-response","294","197762","0.0-294.0","null","<div style=""font-size:60px;""></div>","null","","","","","","",""
"","","","","","html-keyboard-response","295","197788","0.0-295.0","null","<div style=""font-size:60px;"">+</div>","null","","","","","","",""
"","","","","","image-keyboard-response","296","200792","0.0-296.0","null","img/urban_day_young_white_woman_1.png","null","true","21","","","","",""
"","","","","","html-mouse-response","297","201797","0.0-297.0","","<div style=""font-size:60px;"">81</div>","{""key"":""lesser""}","","21","true","true","odd","12",""
"","","","","","html-keyboard-response","298","201851","0.0-298.0","null","<div style=""font-size:60px;""></div>","null","","","","","","",""
"","","","","","html-mouse-response","299","202856","0.0-299.0","","<div style=""font-size:60px;"">83</div>","{""key"":""lesser""}","","21","true","false","odd","12",""
"","","","","","html-keyboard-response","300","202912","0.0-300.0","null","<div style=""font-size:60px;""></div>","null","","","","","","",""
"","","","","","html-mouse-response","301","203918","0.0-301.0","","<div style=""font-size:60px;"">81</div>","{""key"":""greater""}","","21","true","false","odd","12",""
"","","","","","html-keyboard-response","302","203972","0.0-302.0","null","<div style=""font-size:60px;""></div>","null","","","","","","",""
"","","","","","html-mouse-response","303","204976","0.0-303.0","","<div style=""font-size:60px;"">83</div>","{""key"":""greater""}","","21","true","false","odd","12",""
"","","","","","html-keyboard-response","304","205032","0.0-304.0","null","<div style=""font-size:60px;""></div>","null","","","","","","",""
"","","","","","html-mouse-response","305","206039","0.0-305.0","","<div style=""font-size:60px;"">81</div>","{""key"":""lesser""}","","21","true","false","odd","12",""
"","","","","","html-keyboard-response","306","206093","0.0-306.0","null","<div style=""font-size:60px;""></div>","null","","","","","","",""
"","","","","","html-mouse-response","307","207095","0.0-307.0","","<div style=""font-size:60px;"">83</div>","{""key"":""greater""}","","21","true","false","odd","12",""
"","","","","","html-keyboard-response","308","207151","0.0-308.0","null","<div style=""font-size:60px;""></div>","null","","","","","","",""
"","","","","","html-keyboard-response","309","207173","0.0-309.0","null","<div style=""font-size:60px;"">+</div>","null","","","","","","",""
"","","","","","image-keyboard-response","310","210179","0.0-310.0","null","img/urban_day_old_white_woman_1.png","null","true","22","","","","",""
"","","","","","html-mouse-response","311","211185","0.0-311.0","","<div style=""font-size:60px;"">59</div>","{""key"":""lesser""}","","22","true","true","odd","8",""
"","","","","","html-keyboard-response","312","211240","0.0-312.0","null","<div style=""font-size:60px;""></div>","null","","","","","","",""
"","","","","","html-mouse-response","313","212247","0.0-313.0","","<div style=""font-size:60px;"">55</div>","{""key"":""lesser""}","","22","true","false","odd","8",""
"","","","","","html-keyboard-response","314","212303","0.0-314.0","null","<div style=""font-size:60px;""></div>","null","","","","","","",""
"","","","","","html-mouse-response","315","213306","0.0-315.0","","<div style=""font-size:60px;"">57</div>","{""key"":""lesser""}","","22","true","false","odd","8",""
"","","","","","html-keyboard-response","316","213359","0.0-316.0","null","<div style=""font-size:60px;""></div>","null","","","","","","",""
"","","","","","html-mouse-response","317","214361","0.0-317.0","","<div style=""font-size:60px;"">55</div>","{""key"":""greater""}","","22","true","false","odd","8",""
"","","","","","html-keyboard-response","318","214418","0.0-318.0","null","<div style=""font-size:60px;""></div>","null","","","","","","",""
"","","","","","html-mouse-response","319","215421","0.0-319.0","","<div style=""font-size:60px;"">59</div>","{""key"":""lesser""}","","22","true","false","odd","8",""
"","","","","","html-keyboard-response","320","215476","0.0-320.0","null","<div style=""font-size:60px;""></div>","null","","","","","","",""
"","","","","","html-mouse-response","321","216480","0.0-321.0","","<div style=""font-size:60px;"">57</div>","{""key"":""greater""}","","22","true","false","odd","8",""
"","","","","","html-keyboard-response","322","216534","0.0-322.0","null","<div style=""font-size:60px;""></div>","null","","","","","","",""
"","","","","","html-keyboard-response","323","216555","0.0-323.0","null","<div style=""font-size:60px;"">+</div>","null","","","","","","",""
"","","","","","image-keyboard-response","324","219559","0.0-324.0","null","img/urban_day_old_small_furniture_1.png","null","true","23","","","","",""
"","","","","","html-mouse-response","325","220566","0.0-325.0","","<div style=""font-size:60px;"">39</div>","{""key"":""lesser""}","","23","true","true","odd","5",""
"","","","","","html-keyboard-response","326","220619","0.0-326.0","null","<div style=""font-size:60px;""></div>","null","","","","","","",""
"","","","","","html-mouse-response","327","221626","0.0-327.0","","<div style=""font-size:60px;"">37</div>","{""key"":""lesser""}","","23","true","false","odd","5",""
"","","","","","html-keyboard-response","328","221683","0.0-328.0","null","<div style=""font-size:60px;""></div>","null","","","","","","",""
"","","","","","html-mouse-response","329","222685","0.0-329.0","","<div style=""font-size:60px;"">41</div>","{""key"":""lesser""}","","23","true","false","odd","5",""
"","","","","","html-keyboard-response","330","222738","0.0-330.0","null","<div style=""font-size:60px;""></div>","null","","","","","","",""
"","","","","","html-mouse-response","331","223744","0.0-331.0","","<div style=""font-size:60px;"">39</div>","{""key"":""lesser""}","","23","true","false","odd","5",""
"","","","","","html-keyboard-response","332","223800","0.0-332.0","null","<div style=""font-size:60px;""></div>","null","","","","","","",""
"","","","","","html-mouse-response","333","224801","0.0-333.0","","<div style=""font-size:60px;"">41</div>","{""key"":""greater""}","","23","true","false","odd","5",""
"","","","","","html-keyboard-response","334","224856","0.0-334.0","null","<div style=""font-size:60px;""></div>","null","","","","","","",""
"","","","","","html-mouse-response","335","225861","0.0-335.0","","<div style=""font-size:60px;"">37</div>","{""key"":""lesser""}","","23","true","false","odd","5",""
"","","","","","html-keyboard-response","336","225918","0.0-336.0","null","<div style=""font-size:60px;""></div>","null","","","","","","",""
"","","","","","grid-select","337","232703","0.0-337.0","","","[""rural_day_new_big_vehicle_2"",""rural_day_old_big_vehicle_2""]","","","","","","","true"
"","","","","","html-keyboard-response","338","234025","0.0-338.0","1319","<div style=""font-size:60px;"">Please wait for next TR to begin! :) </div>","5","","","","","","",""
"","","","","","html-keyboard-response","339","234670","0.0-339.0","645","Welcome to the experiment. Press any key to begin."," ","","","","","","",""
